{
    "client": {
        "type": "sona",
        "experiment_id": 1505,
        "credit_token": "b20092f9d3b34a378ee654bcc50710ea",
        "survey_code": "33887",
        "sid": "sona-33887",
        "window": {
            "width": 1423,
            "height": 710
        },
        "screen": {
            "width": 1440,
            "height": 900
        },
        "userAgent": "Mozilla\/5.0 (Macintosh; Intel Mac OS X 10_15_7) AppleWebKit\/537.36 (KHTML, like Gecko) Chrome\/95.0.4638.69 Safari\/537.36",
        "score": 0,
        "bonus": 0
    },
    "expt": {
        "saveURL": "submit.simple.php",
        "trials": 100,
        "practiceTrials": 4,
        "marblesSampled": 10,
        "roles": [
            "bullshitter",
            "bullshitDetector"
        ],
        "roleFirst": "bullshitter",
        "allTrialProbs": [
            0.2,
            0.5,
            0.8
        ],
        "trialProbs": 0.8,
        "catchTrials": [
            2,
            18,
            24,
            36,
            44,
            54,
            67,
            77,
            85,
            95
        ],
        "pseudo": {
            "10": 5,
            "21": 10,
            "33": 1,
            "36": 9,
            "38": 0,
            "40": 8,
            "43": 2,
            "46": 7,
            "49": 6,
            "54": 2,
            "61": 3,
            "66": 4,
            "69": 0,
            "75": 4,
            "79": 5,
            "81": 7,
            "86": 10,
            "94": 6,
            "95": 9,
            "96": 3,
            "100": 1,
            "101": 8
        },
        "stat": {
            "playerTotalScore": 454,
            "oppTotalScore": 196,
            "truth": 38,
            "truth_noBS": 17,
            "truth_BS": 21,
            "lie": 12,
            "lie_noBS": 10,
            "lie_BS": 2,
            "noBS": 21,
            "noBS_truth": 9,
            "noBS_lie": 12,
            "BS": 29,
            "BS_truth": 13,
            "BS_lie": 16
        },
        "sona": {
            "experiment_id": 1505,
            "credit_token": "b20092f9d3b34a378ee654bcc50710ea"
        }
    },
    "trials": [
        {
            "exptPart": "practice",
            "trialNumber": 1,
            "roleCurrent": "bullshitter",
            "marblesSampled": 10,
            "probabilityRed": 0.8,
            "drawnRed": 6,
            "reportedDrawn": 6,
            "compLie": -1,
            "compUnifLie": false,
            "compDetect": -0.0033164800000000383,
            "callBS": false,
            "playerTrialScore": 6,
            "oppTrialScore": 4,
            "playerTotalScore": 6,
            "oppTotalScore": 4,
            "waitTime": 3098.6257687677257,
            "responseTime": 16266,
            "catchQuestion": "How many red marbles did you actually draw?",
            "catchKey": 6,
            "catchResponse": 6,
            "catchResponseTime": 10233,
            "pseudoRound": false,
            "trialTime": 45774
        },
        {
            "exptPart": "practice",
            "trialNumber": 2,
            "roleCurrent": "bullshitDetector",
            "marblesSampled": 10,
            "probabilityRed": 0.8,
            "drawnRed": 6,
            "reportedDrawn": 8,
            "compLie": 8,
            "compUnifLie": false,
            "compDetect": -1,
            "callBS": true,
            "playerTrialScore": 5,
            "oppTrialScore": -5,
            "playerTotalScore": 11,
            "oppTotalScore": -1,
            "waitTime": 5688.94027344222,
            "responseTime": 14635,
            "catchQuestion": "How many red marbles did you actually draw?",
            "catchKey": -1,
            "catchResponse": -1,
            "catchResponseTime": -1,
            "pseudoRound": false,
            "trialTime": 28860
        },
        {
            "exptPart": "practice",
            "trialNumber": 3,
            "roleCurrent": "bullshitter",
            "marblesSampled": 10,
            "probabilityRed": 0.8,
            "drawnRed": 7,
            "reportedDrawn": 7,
            "compLie": -1,
            "compUnifLie": false,
            "compDetect": 0.1980101119999999,
            "callBS": false,
            "playerTrialScore": 7,
            "oppTrialScore": 3,
            "playerTotalScore": 18,
            "oppTotalScore": 2,
            "waitTime": 2628.2752120729006,
            "responseTime": 8313,
            "catchQuestion": "How many red marbles did you actually draw?",
            "catchKey": -1,
            "catchResponse": -1,
            "catchResponseTime": -1,
            "pseudoRound": false,
            "trialTime": 25767
        },
        {
            "exptPart": "practice",
            "trialNumber": 4,
            "roleCurrent": "bullshitDetector",
            "marblesSampled": 10,
            "probabilityRed": 0.8,
            "drawnRed": 7,
            "reportedDrawn": 6,
            "compLie": -1,
            "compUnifLie": true,
            "compDetect": 0.1980101119999999,
            "callBS": false,
            "playerTrialScore": 4,
            "oppTrialScore": 6,
            "playerTotalScore": 22,
            "oppTotalScore": 8,
            "waitTime": 6552.428332963277,
            "responseTime": 5260,
            "catchQuestion": "How many red marbles did your opponent report drawing?",
            "catchKey": 6,
            "catchResponse": 6,
            "catchResponseTime": 5680,
            "pseudoRound": false,
            "trialTime": 27333
        },
        {
            "exptPart": "trial",
            "trialNumber": 1,
            "roleCurrent": "bullshitter",
            "marblesSampled": 10,
            "probabilityRed": 0.8,
            "drawnRed": 9,
            "reportedDrawn": 9,
            "compLie": -1,
            "compUnifLie": false,
            "compDetect": 0.7684354560000001,
            "callBS": true,
            "playerTrialScore": 9,
            "oppTrialScore": -4,
            "playerTotalScore": 9,
            "oppTotalScore": -4,
            "waitTime": 2304.02246145159,
            "responseTime": 7933,
            "catchQuestion": "How many red marbles did your opponent report drawing?",
            "catchKey": -1,
            "catchResponse": -1,
            "catchResponseTime": -1,
            "pseudoRound": false,
            "trialTime": 17733
        },
        {
            "exptPart": "trial",
            "trialNumber": 2,
            "roleCurrent": "bullshitDetector",
            "marblesSampled": 10,
            "probabilityRed": 0.8,
            "drawnRed": 8,
            "reportedDrawn": 6,
            "compLie": -1,
            "compUnifLie": true,
            "compDetect": 0.7684354560000001,
            "callBS": false,
            "playerTrialScore": 4,
            "oppTrialScore": 6,
            "playerTotalScore": 13,
            "oppTotalScore": 2,
            "waitTime": 5351.533610355,
            "responseTime": 5343,
            "catchQuestion": "How many red marbles did your opponent report drawing?",
            "catchKey": -1,
            "catchResponse": -1,
            "catchResponseTime": -1,
            "pseudoRound": false,
            "trialTime": 14432
        },
        {
            "exptPart": "trial",
            "trialNumber": 3,
            "roleCurrent": "bullshitter",
            "marblesSampled": 10,
            "probabilityRed": 0.8,
            "drawnRed": 7,
            "reportedDrawn": 7,
            "compLie": -1,
            "compUnifLie": false,
            "compDetect": 0.1980101119999999,
            "callBS": false,
            "playerTrialScore": 7,
            "oppTrialScore": 3,
            "playerTotalScore": 20,
            "oppTotalScore": 5,
            "waitTime": 2740.854199205027,
            "responseTime": 10180,
            "catchQuestion": "How many red marbles did you actually draw?",
            "catchKey": 7,
            "catchResponse": 7,
            "catchResponseTime": 3850,
            "pseudoRound": false,
            "trialTime": 23634
        },
        {
            "exptPart": "trial",
            "trialNumber": 4,
            "roleCurrent": "bullshitDetector",
            "marblesSampled": 10,
            "probabilityRed": 0.8,
            "drawnRed": 8,
            "reportedDrawn": 2,
            "compLie": -1,
            "compUnifLie": true,
            "compDetect": 0.1980101119999999,
            "callBS": true,
            "playerTrialScore": 5,
            "oppTrialScore": -5,
            "playerTotalScore": 25,
            "oppTotalScore": 0,
            "waitTime": 6036.145342057947,
            "responseTime": 8504,
            "catchQuestion": "How many red marbles did you actually draw?",
            "catchKey": -1,
            "catchResponse": -1,
            "catchResponseTime": -1,
            "pseudoRound": false,
            "trialTime": 19029
        },
        {
            "exptPart": "trial",
            "trialNumber": 5,
            "roleCurrent": "bullshitter",
            "marblesSampled": 10,
            "probabilityRed": 0.8,
            "drawnRed": 9,
            "reportedDrawn": 9,
            "compLie": -1,
            "compUnifLie": false,
            "compDetect": 0.7684354560000001,
            "callBS": false,
            "playerTrialScore": 9,
            "oppTrialScore": 1,
            "playerTotalScore": 34,
            "oppTotalScore": 1,
            "waitTime": 2964.289989747208,
            "responseTime": 7365,
            "catchQuestion": "How many red marbles did you actually draw?",
            "catchKey": -1,
            "catchResponse": -1,
            "catchResponseTime": -1,
            "pseudoRound": false,
            "trialTime": 20854
        },
        {
            "exptPart": "trial",
            "trialNumber": 6,
            "roleCurrent": "bullshitDetector",
            "marblesSampled": 10,
            "probabilityRed": 0.8,
            "drawnRed": 7,
            "reportedDrawn": 8,
            "compLie": 8,
            "compUnifLie": false,
            "compDetect": -1,
            "callBS": true,
            "playerTrialScore": 5,
            "oppTrialScore": -5,
            "playerTotalScore": 39,
            "oppTotalScore": -4,
            "waitTime": 6788.310699723572,
            "responseTime": 8989,
            "catchQuestion": "How many red marbles did you actually draw?",
            "catchKey": -1,
            "catchResponse": -1,
            "catchResponseTime": -1,
            "pseudoRound": false,
            "trialTime": 19180
        },
        {
            "exptPart": "trial",
            "trialNumber": 7,
            "roleCurrent": "bullshitter",
            "marblesSampled": 10,
            "probabilityRed": 0.8,
            "drawnRed": 8,
            "reportedDrawn": 8,
            "compLie": -1,
            "compUnifLie": false,
            "compDetect": 0.5,
            "callBS": true,
            "playerTrialScore": 8,
            "oppTrialScore": -3,
            "playerTotalScore": 47,
            "oppTotalScore": -7,
            "waitTime": 2554.3038972139857,
            "responseTime": 3214,
            "catchQuestion": "How many red marbles did you actually draw?",
            "catchKey": -1,
            "catchResponse": -1,
            "catchResponseTime": -1,
            "pseudoRound": false,
            "trialTime": 10414
        },
        {
            "exptPart": "trial",
            "trialNumber": 8,
            "roleCurrent": "bullshitDetector",
            "marblesSampled": 10,
            "probabilityRed": 0.8,
            "drawnRed": 7,
            "reportedDrawn": 10,
            "compLie": 10,
            "compUnifLie": false,
            "compDetect": -1,
            "callBS": true,
            "playerTrialScore": 5,
            "oppTrialScore": -5,
            "playerTotalScore": 52,
            "oppTotalScore": -12,
            "waitTime": 5976.803408830945,
            "responseTime": 10853,
            "catchQuestion": "How many red marbles did you actually draw?",
            "catchKey": -1,
            "catchResponse": -1,
            "catchResponseTime": -1,
            "pseudoRound": false,
            "trialTime": 18550
        },
        {
            "exptPart": "trial",
            "trialNumber": 9,
            "roleCurrent": "bullshitter",
            "marblesSampled": 10,
            "probabilityRed": 0.8,
            "drawnRed": 10,
            "reportedDrawn": 10,
            "compLie": -1,
            "compUnifLie": false,
            "compDetect": 0.8758096384,
            "callBS": true,
            "playerTrialScore": 10,
            "oppTrialScore": -5,
            "playerTotalScore": 62,
            "oppTotalScore": -17,
            "waitTime": 3030.2296605656147,
            "responseTime": 5598,
            "catchQuestion": "How many red marbles did you actually draw?",
            "catchKey": -1,
            "catchResponse": -1,
            "catchResponseTime": -1,
            "pseudoRound": false,
            "trialTime": 13879
        },
        {
            "exptPart": "trial",
            "trialNumber": 10,
            "roleCurrent": "bullshitDetector",
            "marblesSampled": 10,
            "probabilityRed": 0.8,
            "drawnRed": 6,
            "reportedDrawn": 7,
            "compLie": 7,
            "compUnifLie": false,
            "compDetect": -1,
            "callBS": true,
            "playerTrialScore": 5,
            "oppTrialScore": -5,
            "playerTotalScore": 67,
            "oppTotalScore": -22,
            "waitTime": 6607.401862830456,
            "responseTime": 24391,
            "catchQuestion": "How many red marbles did you actually draw?",
            "catchKey": -1,
            "catchResponse": -1,
            "catchResponseTime": -1,
            "pseudoRound": false,
            "trialTime": 38351
        },
        {
            "exptPart": "trial",
            "trialNumber": 11,
            "roleCurrent": "bullshitter",
            "marblesSampled": 10,
            "probabilityRed": 0.8,
            "drawnRed": 5,
            "reportedDrawn": 7,
            "compLie": -1,
            "compUnifLie": false,
            "compDetect": 0.1980101119999999,
            "callBS": false,
            "playerTrialScore": 7,
            "oppTrialScore": 3,
            "playerTotalScore": 74,
            "oppTotalScore": -19,
            "waitTime": 3043.1125396380266,
            "responseTime": 13731,
            "catchQuestion": "How many red marbles did you actually draw?",
            "catchKey": -1,
            "catchResponse": -1,
            "catchResponseTime": -1,
            "pseudoRound": true,
            "trialTime": 23331
        },
        {
            "exptPart": "trial",
            "trialNumber": 12,
            "roleCurrent": "bullshitDetector",
            "marblesSampled": 10,
            "probabilityRed": 0.8,
            "drawnRed": 10,
            "reportedDrawn": 10,
            "compLie": 6,
            "compUnifLie": false,
            "compDetect": -1,
            "callBS": true,
            "playerTrialScore": -5,
            "oppTrialScore": 10,
            "playerTotalScore": 69,
            "oppTotalScore": -9,
            "waitTime": 5792.808602034545,
            "responseTime": 8586,
            "catchQuestion": "How many red marbles did you actually draw?",
            "catchKey": -1,
            "catchResponse": -1,
            "catchResponseTime": -1,
            "pseudoRound": false,
            "trialTime": 26301
        },
        {
            "exptPart": "trial",
            "trialNumber": 13,
            "roleCurrent": "bullshitter",
            "marblesSampled": 10,
            "probabilityRed": 0.8,
            "drawnRed": 9,
            "reportedDrawn": 9,
            "compLie": -1,
            "compUnifLie": false,
            "compDetect": 0.7684354560000001,
            "callBS": true,
            "playerTrialScore": 9,
            "oppTrialScore": -4,
            "playerTotalScore": 78,
            "oppTotalScore": -13,
            "waitTime": 2198.634429122083,
            "responseTime": 3064,
            "catchQuestion": "How many red marbles did you actually draw?",
            "catchKey": -1,
            "catchResponse": -1,
            "catchResponseTime": -1,
            "pseudoRound": false,
            "trialTime": 10415
        },
        {
            "exptPart": "trial",
            "trialNumber": 14,
            "roleCurrent": "bullshitDetector",
            "marblesSampled": 10,
            "probabilityRed": 0.8,
            "drawnRed": 10,
            "reportedDrawn": 10,
            "compLie": 7,
            "compUnifLie": false,
            "compDetect": -1,
            "callBS": true,
            "playerTrialScore": -5,
            "oppTrialScore": 10,
            "playerTotalScore": 73,
            "oppTotalScore": -3,
            "waitTime": 6927.638951047737,
            "responseTime": 73162,
            "catchQuestion": "How many red marbles did you actually draw?",
            "catchKey": -1,
            "catchResponse": -1,
            "catchResponseTime": -1,
            "pseudoRound": false,
            "trialTime": 84293
        },
        {
            "exptPart": "trial",
            "trialNumber": 15,
            "roleCurrent": "bullshitter",
            "marblesSampled": 10,
            "probabilityRed": 0.8,
            "drawnRed": 6,
            "reportedDrawn": 6,
            "compLie": -1,
            "compUnifLie": false,
            "compDetect": -0.0033164800000000383,
            "callBS": false,
            "playerTrialScore": 6,
            "oppTrialScore": 4,
            "playerTotalScore": 79,
            "oppTotalScore": 1,
            "waitTime": 2391.652248491172,
            "responseTime": 18464,
            "catchQuestion": "How many red marbles did you actually draw?",
            "catchKey": -1,
            "catchResponse": -1,
            "catchResponseTime": -1,
            "pseudoRound": false,
            "trialTime": 27031
        },
        {
            "exptPart": "trial",
            "trialNumber": 16,
            "roleCurrent": "bullshitDetector",
            "marblesSampled": 10,
            "probabilityRed": 0.8,
            "drawnRed": 9,
            "reportedDrawn": 9,
            "compLie": 9,
            "compUnifLie": false,
            "compDetect": -1,
            "callBS": false,
            "playerTrialScore": 1,
            "oppTrialScore": 9,
            "playerTotalScore": 80,
            "oppTotalScore": 10,
            "waitTime": 6850.589367376001,
            "responseTime": 14304,
            "catchQuestion": "How many red marbles did you actually draw?",
            "catchKey": -1,
            "catchResponse": -1,
            "catchResponseTime": -1,
            "pseudoRound": false,
            "trialTime": 22859
        },
        {
            "exptPart": "trial",
            "trialNumber": 17,
            "roleCurrent": "bullshitter",
            "marblesSampled": 10,
            "probabilityRed": 0.8,
            "drawnRed": 4,
            "reportedDrawn": 6,
            "compLie": -1,
            "compUnifLie": false,
            "compDetect": -0.0033164800000000383,
            "callBS": false,
            "playerTrialScore": 6,
            "oppTrialScore": 4,
            "playerTotalScore": 86,
            "oppTotalScore": 14,
            "waitTime": 2430.9295676941383,
            "responseTime": 13300,
            "catchQuestion": "How many red marbles did you actually draw?",
            "catchKey": -1,
            "catchResponse": -1,
            "catchResponseTime": -1,
            "pseudoRound": false,
            "trialTime": 20802
        },
        {
            "exptPart": "trial",
            "trialNumber": 18,
            "roleCurrent": "bullshitDetector",
            "marblesSampled": 10,
            "probabilityRed": 0.8,
            "drawnRed": 9,
            "reportedDrawn": 2,
            "compLie": -1,
            "compUnifLie": true,
            "compDetect": -0.0033164800000000383,
            "callBS": true,
            "playerTrialScore": 5,
            "oppTrialScore": -5,
            "playerTotalScore": 91,
            "oppTotalScore": 9,
            "waitTime": 6305.41452788911,
            "responseTime": 4722,
            "catchQuestion": "How many red marbles did you actually draw?",
            "catchKey": -1,
            "catchResponse": -1,
            "catchResponseTime": -1,
            "pseudoRound": false,
            "trialTime": 24897
        },
        {
            "exptPart": "trial",
            "trialNumber": 19,
            "roleCurrent": "bullshitter",
            "marblesSampled": 10,
            "probabilityRed": 0.8,
            "drawnRed": 9,
            "reportedDrawn": 9,
            "compLie": -1,
            "compUnifLie": false,
            "compDetect": 0.7684354560000001,
            "callBS": true,
            "playerTrialScore": 9,
            "oppTrialScore": -4,
            "playerTotalScore": 100,
            "oppTotalScore": 5,
            "waitTime": 2839.357346155286,
            "responseTime": 10566,
            "catchQuestion": "How many red marbles did you actually draw?",
            "catchKey": 9,
            "catchResponse": 9,
            "catchResponseTime": 4283,
            "pseudoRound": false,
            "trialTime": 23385
        },
        {
            "exptPart": "trial",
            "trialNumber": 20,
            "roleCurrent": "bullshitDetector",
            "marblesSampled": 10,
            "probabilityRed": 0.8,
            "drawnRed": 9,
            "reportedDrawn": 9,
            "compLie": 8,
            "compUnifLie": false,
            "compDetect": -1,
            "callBS": false,
            "playerTrialScore": 1,
            "oppTrialScore": 9,
            "playerTotalScore": 101,
            "oppTotalScore": 14,
            "waitTime": 5475.3712602120695,
            "responseTime": 4751,
            "catchQuestion": "How many red marbles did you actually draw?",
            "catchKey": -1,
            "catchResponse": -1,
            "catchResponseTime": -1,
            "pseudoRound": false,
            "trialTime": 16545
        },
        {
            "exptPart": "trial",
            "trialNumber": 21,
            "roleCurrent": "bullshitter",
            "marblesSampled": 10,
            "probabilityRed": 0.8,
            "drawnRed": 9,
            "reportedDrawn": 9,
            "compLie": -1,
            "compUnifLie": false,
            "compDetect": 0.7684354560000001,
            "callBS": true,
            "playerTrialScore": 9,
            "oppTrialScore": -4,
            "playerTotalScore": 110,
            "oppTotalScore": 10,
            "waitTime": 3190.560728247511,
            "responseTime": 2881,
            "catchQuestion": "How many red marbles did you actually draw?",
            "catchKey": -1,
            "catchResponse": -1,
            "catchResponseTime": -1,
            "pseudoRound": false,
            "trialTime": 11984
        },
        {
            "exptPart": "trial",
            "trialNumber": 22,
            "roleCurrent": "bullshitDetector",
            "marblesSampled": 10,
            "probabilityRed": 0.8,
            "drawnRed": 6,
            "reportedDrawn": 10,
            "compLie": -1,
            "compUnifLie": false,
            "compDetect": 0.7684354560000001,
            "callBS": false,
            "playerTrialScore": 0,
            "oppTrialScore": 10,
            "playerTotalScore": 110,
            "oppTotalScore": 20,
            "waitTime": 6471.133678478836,
            "responseTime": 40961,
            "catchQuestion": "How many red marbles did you actually draw?",
            "catchKey": -1,
            "catchResponse": -1,
            "catchResponseTime": -1,
            "pseudoRound": true,
            "trialTime": 50033
        },
        {
            "exptPart": "trial",
            "trialNumber": 23,
            "roleCurrent": "bullshitter",
            "marblesSampled": 10,
            "probabilityRed": 0.8,
            "drawnRed": 9,
            "reportedDrawn": 9,
            "compLie": -1,
            "compUnifLie": false,
            "compDetect": 0.7684354560000001,
            "callBS": true,
            "playerTrialScore": 9,
            "oppTrialScore": -4,
            "playerTotalScore": 119,
            "oppTotalScore": 16,
            "waitTime": 2971.1745786905312,
            "responseTime": 3016,
            "catchQuestion": "How many red marbles did you actually draw?",
            "catchKey": -1,
            "catchResponse": -1,
            "catchResponseTime": -1,
            "pseudoRound": false,
            "trialTime": 9853
        },
        {
            "exptPart": "trial",
            "trialNumber": 24,
            "roleCurrent": "bullshitDetector",
            "marblesSampled": 10,
            "probabilityRed": 0.8,
            "drawnRed": 8,
            "reportedDrawn": 10,
            "compLie": 10,
            "compUnifLie": false,
            "compDetect": -1,
            "callBS": true,
            "playerTrialScore": 5,
            "oppTrialScore": -5,
            "playerTotalScore": 124,
            "oppTotalScore": 11,
            "waitTime": 5500.191959266464,
            "responseTime": 2177,
            "catchQuestion": "How many red marbles did you actually draw?",
            "catchKey": -1,
            "catchResponse": -1,
            "catchResponseTime": -1,
            "pseudoRound": false,
            "trialTime": 9767
        },
        {
            "exptPart": "trial",
            "trialNumber": 25,
            "roleCurrent": "bullshitter",
            "marblesSampled": 10,
            "probabilityRed": 0.8,
            "drawnRed": 7,
            "reportedDrawn": 8,
            "compLie": -1,
            "compUnifLie": false,
            "compDetect": 0.5,
            "callBS": true,
            "playerTrialScore": -5,
            "oppTrialScore": 5,
            "playerTotalScore": 119,
            "oppTotalScore": 16,
            "waitTime": 2764.605012053323,
            "responseTime": 5231,
            "catchQuestion": "How many red marbles did you actually draw?",
            "catchKey": 7,
            "catchResponse": 7,
            "catchResponseTime": 2816,
            "pseudoRound": false,
            "trialTime": 19064
        },
        {
            "exptPart": "trial",
            "trialNumber": 26,
            "roleCurrent": "bullshitDetector",
            "marblesSampled": 10,
            "probabilityRed": 0.8,
            "drawnRed": 10,
            "reportedDrawn": 10,
            "compLie": 9,
            "compUnifLie": false,
            "compDetect": -1,
            "callBS": true,
            "playerTrialScore": -5,
            "oppTrialScore": 10,
            "playerTotalScore": 114,
            "oppTotalScore": 26,
            "waitTime": 5754.161515243786,
            "responseTime": 5645,
            "catchQuestion": "How many red marbles did you actually draw?",
            "catchKey": -1,
            "catchResponse": -1,
            "catchResponseTime": -1,
            "pseudoRound": false,
            "trialTime": 13117
        },
        {
            "exptPart": "trial",
            "trialNumber": 27,
            "roleCurrent": "bullshitter",
            "marblesSampled": 10,
            "probabilityRed": 0.8,
            "drawnRed": 9,
            "reportedDrawn": 9,
            "compLie": -1,
            "compUnifLie": false,
            "compDetect": 0.7684354560000001,
            "callBS": true,
            "playerTrialScore": 9,
            "oppTrialScore": -4,
            "playerTotalScore": 123,
            "oppTotalScore": 22,
            "waitTime": 2643.953207829669,
            "responseTime": 2997,
            "catchQuestion": "How many red marbles did you actually draw?",
            "catchKey": -1,
            "catchResponse": -1,
            "catchResponseTime": -1,
            "pseudoRound": false,
            "trialTime": 10948
        },
        {
            "exptPart": "trial",
            "trialNumber": 28,
            "roleCurrent": "bullshitDetector",
            "marblesSampled": 10,
            "probabilityRed": 0.8,
            "drawnRed": 5,
            "reportedDrawn": 8,
            "compLie": -1,
            "compUnifLie": true,
            "compDetect": 0.7684354560000001,
            "callBS": false,
            "playerTrialScore": 2,
            "oppTrialScore": 8,
            "playerTotalScore": 125,
            "oppTotalScore": 30,
            "waitTime": 5657.109902977192,
            "responseTime": 7428,
            "catchQuestion": "How many red marbles did you actually draw?",
            "catchKey": -1,
            "catchResponse": -1,
            "catchResponseTime": -1,
            "pseudoRound": false,
            "trialTime": 15552
        },
        {
            "exptPart": "trial",
            "trialNumber": 29,
            "roleCurrent": "bullshitter",
            "marblesSampled": 10,
            "probabilityRed": 0.8,
            "drawnRed": 8,
            "reportedDrawn": 8,
            "compLie": -1,
            "compUnifLie": false,
            "compDetect": 0.5,
            "callBS": true,
            "playerTrialScore": 8,
            "oppTrialScore": -3,
            "playerTotalScore": 133,
            "oppTotalScore": 27,
            "waitTime": 3088.377367063913,
            "responseTime": 2765,
            "catchQuestion": "How many red marbles did you actually draw?",
            "catchKey": -1,
            "catchResponse": -1,
            "catchResponseTime": -1,
            "pseudoRound": false,
            "trialTime": 10921
        },
        {
            "exptPart": "trial",
            "trialNumber": 30,
            "roleCurrent": "bullshitDetector",
            "marblesSampled": 10,
            "probabilityRed": 0.8,
            "drawnRed": 10,
            "reportedDrawn": 10,
            "compLie": 7,
            "compUnifLie": false,
            "compDetect": -1,
            "callBS": true,
            "playerTrialScore": -5,
            "oppTrialScore": 10,
            "playerTotalScore": 128,
            "oppTotalScore": 37,
            "waitTime": 6948.547514574617,
            "responseTime": 4442,
            "catchQuestion": "How many red marbles did you actually draw?",
            "catchKey": -1,
            "catchResponse": -1,
            "catchResponseTime": -1,
            "pseudoRound": false,
            "trialTime": 14312
        },
        {
            "exptPart": "trial",
            "trialNumber": 31,
            "roleCurrent": "bullshitter",
            "marblesSampled": 10,
            "probabilityRed": 0.8,
            "drawnRed": 8,
            "reportedDrawn": 8,
            "compLie": -1,
            "compUnifLie": false,
            "compDetect": 0.5,
            "callBS": false,
            "playerTrialScore": 8,
            "oppTrialScore": 2,
            "playerTotalScore": 136,
            "oppTotalScore": 39,
            "waitTime": 2258.492476213588,
            "responseTime": 5447,
            "catchQuestion": "How many red marbles did you actually draw?",
            "catchKey": -1,
            "catchResponse": -1,
            "catchResponseTime": -1,
            "pseudoRound": false,
            "trialTime": 11867
        },
        {
            "exptPart": "trial",
            "trialNumber": 32,
            "roleCurrent": "bullshitDetector",
            "marblesSampled": 10,
            "probabilityRed": 0.8,
            "drawnRed": 10,
            "reportedDrawn": 10,
            "compLie": 7,
            "compUnifLie": false,
            "compDetect": -1,
            "callBS": true,
            "playerTrialScore": -5,
            "oppTrialScore": 10,
            "playerTotalScore": 131,
            "oppTotalScore": 49,
            "waitTime": 5490.420384277486,
            "responseTime": 38421,
            "catchQuestion": "How many red marbles did you actually draw?",
            "catchKey": -1,
            "catchResponse": -1,
            "catchResponseTime": -1,
            "pseudoRound": false,
            "trialTime": 46236
        },
        {
            "exptPart": "trial",
            "trialNumber": 33,
            "roleCurrent": "bullshitter",
            "marblesSampled": 10,
            "probabilityRed": 0.8,
            "drawnRed": 8,
            "reportedDrawn": 8,
            "compLie": -1,
            "compUnifLie": false,
            "compDetect": 0.5,
            "callBS": true,
            "playerTrialScore": 8,
            "oppTrialScore": -3,
            "playerTotalScore": 139,
            "oppTotalScore": 46,
            "waitTime": 2469.996232473949,
            "responseTime": 2483,
            "catchQuestion": "How many red marbles did you actually draw?",
            "catchKey": -1,
            "catchResponse": -1,
            "catchResponseTime": -1,
            "pseudoRound": false,
            "trialTime": 9298
        },
        {
            "exptPart": "trial",
            "trialNumber": 34,
            "roleCurrent": "bullshitDetector",
            "marblesSampled": 10,
            "probabilityRed": 0.8,
            "drawnRed": 9,
            "reportedDrawn": 1,
            "compLie": -1,
            "compUnifLie": false,
            "compDetect": 0.5,
            "callBS": true,
            "playerTrialScore": 5,
            "oppTrialScore": -5,
            "playerTotalScore": 144,
            "oppTotalScore": 41,
            "waitTime": 5231.09079273889,
            "responseTime": 17768,
            "catchQuestion": "How many red marbles did you actually draw?",
            "catchKey": -1,
            "catchResponse": -1,
            "catchResponseTime": -1,
            "pseudoRound": true,
            "trialTime": 26085
        },
        {
            "exptPart": "trial",
            "trialNumber": 35,
            "roleCurrent": "bullshitter",
            "marblesSampled": 10,
            "probabilityRed": 0.8,
            "drawnRed": 5,
            "reportedDrawn": 7,
            "compLie": -1,
            "compUnifLie": false,
            "compDetect": 0.1980101119999999,
            "callBS": false,
            "playerTrialScore": 7,
            "oppTrialScore": 3,
            "playerTotalScore": 151,
            "oppTotalScore": 44,
            "waitTime": 3068.0134193058016,
            "responseTime": 9882,
            "catchQuestion": "How many red marbles did you actually draw?",
            "catchKey": -1,
            "catchResponse": -1,
            "catchResponseTime": -1,
            "pseudoRound": false,
            "trialTime": 21566
        },
        {
            "exptPart": "trial",
            "trialNumber": 36,
            "roleCurrent": "bullshitDetector",
            "marblesSampled": 10,
            "probabilityRed": 0.8,
            "drawnRed": 8,
            "reportedDrawn": 8,
            "compLie": 7,
            "compUnifLie": false,
            "compDetect": -1,
            "callBS": false,
            "playerTrialScore": 2,
            "oppTrialScore": 8,
            "playerTotalScore": 153,
            "oppTotalScore": 52,
            "waitTime": 6787.721435898357,
            "responseTime": 18960,
            "catchQuestion": "How many red marbles did you actually draw?",
            "catchKey": -1,
            "catchResponse": -1,
            "catchResponseTime": -1,
            "pseudoRound": false,
            "trialTime": 28052
        },
        {
            "exptPart": "trial",
            "trialNumber": 37,
            "roleCurrent": "bullshitter",
            "marblesSampled": 10,
            "probabilityRed": 0.8,
            "drawnRed": 9,
            "reportedDrawn": 9,
            "compLie": -1,
            "compUnifLie": false,
            "compDetect": 0.7684354560000001,
            "callBS": false,
            "playerTrialScore": 9,
            "oppTrialScore": 1,
            "playerTotalScore": 162,
            "oppTotalScore": 53,
            "waitTime": 2876.4510739892194,
            "responseTime": 2798,
            "catchQuestion": "How many red marbles did you actually draw?",
            "catchKey": 9,
            "catchResponse": 9,
            "catchResponseTime": 3114,
            "pseudoRound": true,
            "trialTime": 14331
        },
        {
            "exptPart": "trial",
            "trialNumber": 38,
            "roleCurrent": "bullshitDetector",
            "marblesSampled": 10,
            "probabilityRed": 0.8,
            "drawnRed": 6,
            "reportedDrawn": 9,
            "compLie": -1,
            "compUnifLie": true,
            "compDetect": 0.7684354560000001,
            "callBS": false,
            "playerTrialScore": 1,
            "oppTrialScore": 9,
            "playerTotalScore": 163,
            "oppTotalScore": 62,
            "waitTime": 6084.328851118378,
            "responseTime": 18398,
            "catchQuestion": "How many red marbles did you actually draw?",
            "catchKey": -1,
            "catchResponse": -1,
            "catchResponseTime": -1,
            "pseudoRound": false,
            "trialTime": 25988
        },
        {
            "exptPart": "trial",
            "trialNumber": 39,
            "roleCurrent": "bullshitter",
            "marblesSampled": 10,
            "probabilityRed": 0.8,
            "drawnRed": 0,
            "reportedDrawn": 0,
            "compLie": -1,
            "compUnifLie": false,
            "compDetect": -0.12419025919999997,
            "callBS": false,
            "playerTrialScore": 0,
            "oppTrialScore": 10,
            "playerTotalScore": 163,
            "oppTotalScore": 72,
            "waitTime": 2509.6290128293804,
            "responseTime": 23449,
            "catchQuestion": "How many red marbles did you actually draw?",
            "catchKey": -1,
            "catchResponse": -1,
            "catchResponseTime": -1,
            "pseudoRound": true,
            "trialTime": 31000
        },
        {
            "exptPart": "trial",
            "trialNumber": 40,
            "roleCurrent": "bullshitDetector",
            "marblesSampled": 10,
            "probabilityRed": 0.8,
            "drawnRed": 10,
            "reportedDrawn": 10,
            "compLie": 9,
            "compUnifLie": false,
            "compDetect": -1,
            "callBS": true,
            "playerTrialScore": -5,
            "oppTrialScore": 10,
            "playerTotalScore": 158,
            "oppTotalScore": 82,
            "waitTime": 5347.308665749147,
            "responseTime": 3366,
            "catchQuestion": "How many red marbles did you actually draw?",
            "catchKey": -1,
            "catchResponse": -1,
            "catchResponseTime": -1,
            "pseudoRound": false,
            "trialTime": 13486
        },
        {
            "exptPart": "trial",
            "trialNumber": 41,
            "roleCurrent": "bullshitter",
            "marblesSampled": 10,
            "probabilityRed": 0.8,
            "drawnRed": 8,
            "reportedDrawn": 8,
            "compLie": -1,
            "compUnifLie": false,
            "compDetect": 0.5,
            "callBS": false,
            "playerTrialScore": 8,
            "oppTrialScore": 2,
            "playerTotalScore": 166,
            "oppTotalScore": 84,
            "waitTime": 2528.251713968399,
            "responseTime": 2497,
            "catchQuestion": "How many red marbles did you actually draw?",
            "catchKey": -1,
            "catchResponse": -1,
            "catchResponseTime": -1,
            "pseudoRound": true,
            "trialTime": 9385
        },
        {
            "exptPart": "trial",
            "trialNumber": 42,
            "roleCurrent": "bullshitDetector",
            "marblesSampled": 10,
            "probabilityRed": 0.8,
            "drawnRed": 5,
            "reportedDrawn": 9,
            "compLie": 9,
            "compUnifLie": false,
            "compDetect": -1,
            "callBS": true,
            "playerTrialScore": 5,
            "oppTrialScore": -5,
            "playerTotalScore": 171,
            "oppTotalScore": 79,
            "waitTime": 5260.5150453508895,
            "responseTime": 2434,
            "catchQuestion": "How many red marbles did you actually draw?",
            "catchKey": -1,
            "catchResponse": -1,
            "catchResponseTime": -1,
            "pseudoRound": false,
            "trialTime": 9262
        },
        {
            "exptPart": "trial",
            "trialNumber": 43,
            "roleCurrent": "bullshitter",
            "marblesSampled": 10,
            "probabilityRed": 0.8,
            "drawnRed": 8,
            "reportedDrawn": 8,
            "compLie": -1,
            "compUnifLie": false,
            "compDetect": 0.5,
            "callBS": false,
            "playerTrialScore": 8,
            "oppTrialScore": 2,
            "playerTotalScore": 179,
            "oppTotalScore": 81,
            "waitTime": 2830.07615685601,
            "responseTime": 2864,
            "catchQuestion": "How many red marbles did you actually draw?",
            "catchKey": -1,
            "catchResponse": -1,
            "catchResponseTime": -1,
            "pseudoRound": false,
            "trialTime": 9884
        },
        {
            "exptPart": "trial",
            "trialNumber": 44,
            "roleCurrent": "bullshitDetector",
            "marblesSampled": 10,
            "probabilityRed": 0.8,
            "drawnRed": 10,
            "reportedDrawn": 2,
            "compLie": -1,
            "compUnifLie": false,
            "compDetect": 0.5,
            "callBS": false,
            "playerTrialScore": 8,
            "oppTrialScore": 2,
            "playerTotalScore": 187,
            "oppTotalScore": 83,
            "waitTime": 5307.503335957995,
            "responseTime": 16056,
            "catchQuestion": "How many red marbles did you actually draw?",
            "catchKey": -1,
            "catchResponse": -1,
            "catchResponseTime": -1,
            "pseudoRound": true,
            "trialTime": 24632
        },
        {
            "exptPart": "trial",
            "trialNumber": 45,
            "roleCurrent": "bullshitter",
            "marblesSampled": 10,
            "probabilityRed": 0.8,
            "drawnRed": 10,
            "reportedDrawn": 10,
            "compLie": -1,
            "compUnifLie": false,
            "compDetect": 0.8758096384,
            "callBS": true,
            "playerTrialScore": 10,
            "oppTrialScore": -5,
            "playerTotalScore": 197,
            "oppTotalScore": 78,
            "waitTime": 2360.858034732727,
            "responseTime": 4698,
            "catchQuestion": "How many red marbles did you actually draw?",
            "catchKey": 10,
            "catchResponse": 10,
            "catchResponseTime": 4166,
            "pseudoRound": false,
            "trialTime": 18609
        },
        {
            "exptPart": "trial",
            "trialNumber": 46,
            "roleCurrent": "bullshitDetector",
            "marblesSampled": 10,
            "probabilityRed": 0.8,
            "drawnRed": 10,
            "reportedDrawn": 10,
            "compLie": 8,
            "compUnifLie": false,
            "compDetect": -1,
            "callBS": true,
            "playerTrialScore": -5,
            "oppTrialScore": 10,
            "playerTotalScore": 192,
            "oppTotalScore": 88,
            "waitTime": 6134.496474036903,
            "responseTime": 11610,
            "catchQuestion": "How many red marbles did you actually draw?",
            "catchKey": -1,
            "catchResponse": -1,
            "catchResponseTime": -1,
            "pseudoRound": false,
            "trialTime": 20599
        },
        {
            "exptPart": "trial",
            "trialNumber": 47,
            "roleCurrent": "bullshitter",
            "marblesSampled": 10,
            "probabilityRed": 0.8,
            "drawnRed": 7,
            "reportedDrawn": 7,
            "compLie": -1,
            "compUnifLie": false,
            "compDetect": 0.1980101119999999,
            "callBS": false,
            "playerTrialScore": 7,
            "oppTrialScore": 3,
            "playerTotalScore": 199,
            "oppTotalScore": 91,
            "waitTime": 3242.4196405454004,
            "responseTime": 2415,
            "catchQuestion": "How many red marbles did you actually draw?",
            "catchKey": -1,
            "catchResponse": -1,
            "catchResponseTime": -1,
            "pseudoRound": true,
            "trialTime": 10764
        },
        {
            "exptPart": "trial",
            "trialNumber": 48,
            "roleCurrent": "bullshitDetector",
            "marblesSampled": 10,
            "probabilityRed": 0.8,
            "drawnRed": 8,
            "reportedDrawn": 8,
            "compLie": 8,
            "compUnifLie": false,
            "compDetect": -1,
            "callBS": true,
            "playerTrialScore": -3,
            "oppTrialScore": 8,
            "playerTotalScore": 196,
            "oppTotalScore": 99,
            "waitTime": 6440.5653103944915,
            "responseTime": 2672,
            "catchQuestion": "How many red marbles did you actually draw?",
            "catchKey": -1,
            "catchResponse": -1,
            "catchResponseTime": -1,
            "pseudoRound": false,
            "trialTime": 11500
        },
        {
            "exptPart": "trial",
            "trialNumber": 49,
            "roleCurrent": "bullshitter",
            "marblesSampled": 10,
            "probabilityRed": 0.8,
            "drawnRed": 7,
            "reportedDrawn": 7,
            "compLie": -1,
            "compUnifLie": false,
            "compDetect": 0.1980101119999999,
            "callBS": true,
            "playerTrialScore": 7,
            "oppTrialScore": -2,
            "playerTotalScore": 203,
            "oppTotalScore": 97,
            "waitTime": 2965.2958982547343,
            "responseTime": 6482,
            "catchQuestion": "How many red marbles did you actually draw?",
            "catchKey": -1,
            "catchResponse": -1,
            "catchResponseTime": -1,
            "pseudoRound": false,
            "trialTime": 13965
        },
        {
            "exptPart": "trial",
            "trialNumber": 50,
            "roleCurrent": "bullshitDetector",
            "marblesSampled": 10,
            "probabilityRed": 0.8,
            "drawnRed": 10,
            "reportedDrawn": 6,
            "compLie": -1,
            "compUnifLie": false,
            "compDetect": 0.1980101119999999,
            "callBS": true,
            "playerTrialScore": 5,
            "oppTrialScore": -5,
            "playerTotalScore": 208,
            "oppTotalScore": 92,
            "waitTime": 6427.287134942493,
            "responseTime": 5832,
            "catchQuestion": "How many red marbles did you actually draw?",
            "catchKey": -1,
            "catchResponse": -1,
            "catchResponseTime": -1,
            "pseudoRound": true,
            "trialTime": 16827
        },
        {
            "exptPart": "trial",
            "trialNumber": 51,
            "roleCurrent": "bullshitter",
            "marblesSampled": 10,
            "probabilityRed": 0.8,
            "drawnRed": 9,
            "reportedDrawn": 9,
            "compLie": -1,
            "compUnifLie": false,
            "compDetect": 0.7684354560000001,
            "callBS": true,
            "playerTrialScore": 9,
            "oppTrialScore": -4,
            "playerTotalScore": 217,
            "oppTotalScore": 88,
            "waitTime": 2430.4957683667863,
            "responseTime": 2365,
            "catchQuestion": "How many red marbles did you actually draw?",
            "catchKey": -1,
            "catchResponse": -1,
            "catchResponseTime": -1,
            "pseudoRound": false,
            "trialTime": 9667
        },
        {
            "exptPart": "trial",
            "trialNumber": 52,
            "roleCurrent": "bullshitDetector",
            "marblesSampled": 10,
            "probabilityRed": 0.8,
            "drawnRed": 7,
            "reportedDrawn": 10,
            "compLie": 10,
            "compUnifLie": false,
            "compDetect": -1,
            "callBS": true,
            "playerTrialScore": 5,
            "oppTrialScore": -5,
            "playerTotalScore": 222,
            "oppTotalScore": 83,
            "waitTime": 5412.773706984483,
            "responseTime": 18767,
            "catchQuestion": "How many red marbles did you actually draw?",
            "catchKey": -1,
            "catchResponse": -1,
            "catchResponseTime": -1,
            "pseudoRound": false,
            "trialTime": 26898
        },
        {
            "exptPart": "trial",
            "trialNumber": 53,
            "roleCurrent": "bullshitter",
            "marblesSampled": 10,
            "probabilityRed": 0.8,
            "drawnRed": 10,
            "reportedDrawn": 10,
            "compLie": -1,
            "compUnifLie": false,
            "compDetect": 0.8758096384,
            "callBS": true,
            "playerTrialScore": 10,
            "oppTrialScore": -5,
            "playerTotalScore": 232,
            "oppTotalScore": 78,
            "waitTime": 2381.274919664333,
            "responseTime": 3449,
            "catchQuestion": "How many red marbles did you actually draw?",
            "catchKey": -1,
            "catchResponse": -1,
            "catchResponseTime": -1,
            "pseudoRound": false,
            "trialTime": 10226
        },
        {
            "exptPart": "trial",
            "trialNumber": 54,
            "roleCurrent": "bullshitDetector",
            "marblesSampled": 10,
            "probabilityRed": 0.8,
            "drawnRed": 9,
            "reportedDrawn": 9,
            "compLie": 7,
            "compUnifLie": false,
            "compDetect": -1,
            "callBS": false,
            "playerTrialScore": 1,
            "oppTrialScore": 9,
            "playerTotalScore": 233,
            "oppTotalScore": 87,
            "waitTime": 6744.0294121477955,
            "responseTime": 4385,
            "catchQuestion": "How many red marbles did you actually draw?",
            "catchKey": -1,
            "catchResponse": -1,
            "catchResponseTime": -1,
            "pseudoRound": false,
            "trialTime": 13518
        },
        {
            "exptPart": "trial",
            "trialNumber": 55,
            "roleCurrent": "bullshitter",
            "marblesSampled": 10,
            "probabilityRed": 0.8,
            "drawnRed": 2,
            "reportedDrawn": 10,
            "compLie": -1,
            "compUnifLie": false,
            "compDetect": 0.8758096384,
            "callBS": true,
            "playerTrialScore": -5,
            "oppTrialScore": 5,
            "playerTotalScore": 228,
            "oppTotalScore": 92,
            "waitTime": 2111.256422576126,
            "responseTime": 8698,
            "catchQuestion": "How many red marbles did you actually draw?",
            "catchKey": 2,
            "catchResponse": 2,
            "catchResponseTime": 2501,
            "pseudoRound": true,
            "trialTime": 23932
        },
        {
            "exptPart": "trial",
            "trialNumber": 56,
            "roleCurrent": "bullshitDetector",
            "marblesSampled": 10,
            "probabilityRed": 0.8,
            "drawnRed": 10,
            "reportedDrawn": 10,
            "compLie": -1,
            "compUnifLie": true,
            "compDetect": 0.8758096384,
            "callBS": true,
            "playerTrialScore": -5,
            "oppTrialScore": 10,
            "playerTotalScore": 223,
            "oppTotalScore": 102,
            "waitTime": 5167.8535150533435,
            "responseTime": 2582,
            "catchQuestion": "How many red marbles did you actually draw?",
            "catchKey": -1,
            "catchResponse": -1,
            "catchResponseTime": -1,
            "pseudoRound": false,
            "trialTime": 9568
        },
        {
            "exptPart": "trial",
            "trialNumber": 57,
            "roleCurrent": "bullshitter",
            "marblesSampled": 10,
            "probabilityRed": 0.8,
            "drawnRed": 8,
            "reportedDrawn": 8,
            "compLie": -1,
            "compUnifLie": false,
            "compDetect": 0.5,
            "callBS": false,
            "playerTrialScore": 8,
            "oppTrialScore": 2,
            "playerTotalScore": 231,
            "oppTotalScore": 104,
            "waitTime": 3091.865675489641,
            "responseTime": 2481,
            "catchQuestion": "How many red marbles did you actually draw?",
            "catchKey": -1,
            "catchResponse": -1,
            "catchResponseTime": -1,
            "pseudoRound": false,
            "trialTime": 9986
        },
        {
            "exptPart": "trial",
            "trialNumber": 58,
            "roleCurrent": "bullshitDetector",
            "marblesSampled": 10,
            "probabilityRed": 0.8,
            "drawnRed": 7,
            "reportedDrawn": 7,
            "compLie": 7,
            "compUnifLie": false,
            "compDetect": -1,
            "callBS": false,
            "playerTrialScore": 3,
            "oppTrialScore": 7,
            "playerTotalScore": 234,
            "oppTotalScore": 111,
            "waitTime": 7093.511710466533,
            "responseTime": 2635,
            "catchQuestion": "How many red marbles did you actually draw?",
            "catchKey": -1,
            "catchResponse": -1,
            "catchResponseTime": -1,
            "pseudoRound": false,
            "trialTime": 11664
        },
        {
            "exptPart": "trial",
            "trialNumber": 59,
            "roleCurrent": "bullshitter",
            "marblesSampled": 10,
            "probabilityRed": 0.8,
            "drawnRed": 7,
            "reportedDrawn": 7,
            "compLie": -1,
            "compUnifLie": false,
            "compDetect": 0.1980101119999999,
            "callBS": false,
            "playerTrialScore": 7,
            "oppTrialScore": 3,
            "playerTotalScore": 241,
            "oppTotalScore": 114,
            "waitTime": 2233.3695339422848,
            "responseTime": 2965,
            "catchQuestion": "How many red marbles did you actually draw?",
            "catchKey": -1,
            "catchResponse": -1,
            "catchResponseTime": -1,
            "pseudoRound": false,
            "trialTime": 10416
        },
        {
            "exptPart": "trial",
            "trialNumber": 60,
            "roleCurrent": "bullshitDetector",
            "marblesSampled": 10,
            "probabilityRed": 0.8,
            "drawnRed": 6,
            "reportedDrawn": 9,
            "compLie": 9,
            "compUnifLie": false,
            "compDetect": -1,
            "callBS": true,
            "playerTrialScore": 5,
            "oppTrialScore": -5,
            "playerTotalScore": 246,
            "oppTotalScore": 109,
            "waitTime": 6832.703971787209,
            "responseTime": 7077,
            "catchQuestion": "How many red marbles did you actually draw?",
            "catchKey": -1,
            "catchResponse": -1,
            "catchResponseTime": -1,
            "pseudoRound": false,
            "trialTime": 17948
        },
        {
            "exptPart": "trial",
            "trialNumber": 61,
            "roleCurrent": "bullshitter",
            "marblesSampled": 10,
            "probabilityRed": 0.8,
            "drawnRed": 7,
            "reportedDrawn": 7,
            "compLie": -1,
            "compUnifLie": false,
            "compDetect": 0.1980101119999999,
            "callBS": false,
            "playerTrialScore": 7,
            "oppTrialScore": 3,
            "playerTotalScore": 253,
            "oppTotalScore": 112,
            "waitTime": 2723.6025912404066,
            "responseTime": 2597,
            "catchQuestion": "How many red marbles did you actually draw?",
            "catchKey": -1,
            "catchResponse": -1,
            "catchResponseTime": -1,
            "pseudoRound": false,
            "trialTime": 9994
        },
        {
            "exptPart": "trial",
            "trialNumber": 62,
            "roleCurrent": "bullshitDetector",
            "marblesSampled": 10,
            "probabilityRed": 0.8,
            "drawnRed": 8,
            "reportedDrawn": 3,
            "compLie": -1,
            "compUnifLie": false,
            "compDetect": 0.1980101119999999,
            "callBS": true,
            "playerTrialScore": 5,
            "oppTrialScore": -5,
            "playerTotalScore": 258,
            "oppTotalScore": 107,
            "waitTime": 5997.661078203226,
            "responseTime": 7903,
            "catchQuestion": "How many red marbles did you actually draw?",
            "catchKey": -1,
            "catchResponse": -1,
            "catchResponseTime": -1,
            "pseudoRound": true,
            "trialTime": 16504
        },
        {
            "exptPart": "trial",
            "trialNumber": 63,
            "roleCurrent": "bullshitter",
            "marblesSampled": 10,
            "probabilityRed": 0.8,
            "drawnRed": 9,
            "reportedDrawn": 9,
            "compLie": -1,
            "compUnifLie": false,
            "compDetect": 0.7684354560000001,
            "callBS": true,
            "playerTrialScore": 9,
            "oppTrialScore": -4,
            "playerTotalScore": 267,
            "oppTotalScore": 103,
            "waitTime": 2406.282463864758,
            "responseTime": 2531,
            "catchQuestion": "How many red marbles did you actually draw?",
            "catchKey": -1,
            "catchResponse": -1,
            "catchResponseTime": -1,
            "pseudoRound": false,
            "trialTime": 9365
        },
        {
            "exptPart": "trial",
            "trialNumber": 64,
            "roleCurrent": "bullshitDetector",
            "marblesSampled": 10,
            "probabilityRed": 0.8,
            "drawnRed": 8,
            "reportedDrawn": 9,
            "compLie": 9,
            "compUnifLie": false,
            "compDetect": -1,
            "callBS": false,
            "playerTrialScore": 1,
            "oppTrialScore": 9,
            "playerTotalScore": 268,
            "oppTotalScore": 112,
            "waitTime": 7154.669966678866,
            "responseTime": 13455,
            "catchQuestion": "How many red marbles did you actually draw?",
            "catchKey": -1,
            "catchResponse": -1,
            "catchResponseTime": -1,
            "pseudoRound": false,
            "trialTime": 22172
        },
        {
            "exptPart": "trial",
            "trialNumber": 65,
            "roleCurrent": "bullshitter",
            "marblesSampled": 10,
            "probabilityRed": 0.8,
            "drawnRed": 8,
            "reportedDrawn": 8,
            "compLie": -1,
            "compUnifLie": false,
            "compDetect": 0.5,
            "callBS": false,
            "playerTrialScore": 8,
            "oppTrialScore": 2,
            "playerTotalScore": 276,
            "oppTotalScore": 114,
            "waitTime": 2334.2334108065456,
            "responseTime": 2732,
            "catchQuestion": "How many red marbles did you actually draw?",
            "catchKey": -1,
            "catchResponse": -1,
            "catchResponseTime": -1,
            "pseudoRound": false,
            "trialTime": 14384
        },
        {
            "exptPart": "trial",
            "trialNumber": 66,
            "roleCurrent": "bullshitDetector",
            "marblesSampled": 10,
            "probabilityRed": 0.8,
            "drawnRed": 7,
            "reportedDrawn": 3,
            "compLie": -1,
            "compUnifLie": true,
            "compDetect": 0.5,
            "callBS": false,
            "playerTrialScore": 7,
            "oppTrialScore": 3,
            "playerTotalScore": 283,
            "oppTotalScore": 117,
            "waitTime": 5720.421193529695,
            "responseTime": 11873,
            "catchQuestion": "How many red marbles did you actually draw?",
            "catchKey": -1,
            "catchResponse": -1,
            "catchResponseTime": -1,
            "pseudoRound": false,
            "trialTime": 19049
        },
        {
            "exptPart": "trial",
            "trialNumber": 67,
            "roleCurrent": "bullshitter",
            "marblesSampled": 10,
            "probabilityRed": 0.8,
            "drawnRed": 4,
            "reportedDrawn": 7,
            "compLie": -1,
            "compUnifLie": false,
            "compDetect": 0.1980101119999999,
            "callBS": false,
            "playerTrialScore": 7,
            "oppTrialScore": 3,
            "playerTotalScore": 290,
            "oppTotalScore": 120,
            "waitTime": 3215.018872993422,
            "responseTime": 14264,
            "catchQuestion": "How many red marbles did you actually draw?",
            "catchKey": -1,
            "catchResponse": -1,
            "catchResponseTime": -1,
            "pseudoRound": true,
            "trialTime": 21868
        },
        {
            "exptPart": "trial",
            "trialNumber": 68,
            "roleCurrent": "bullshitDetector",
            "marblesSampled": 10,
            "probabilityRed": 0.8,
            "drawnRed": 9,
            "reportedDrawn": 9,
            "compLie": 8,
            "compUnifLie": false,
            "compDetect": -1,
            "callBS": false,
            "playerTrialScore": 1,
            "oppTrialScore": 9,
            "playerTotalScore": 291,
            "oppTotalScore": 129,
            "waitTime": 7223.263719551255,
            "responseTime": 4744,
            "catchQuestion": "How many red marbles did your opponent report drawing?",
            "catchKey": 9,
            "catchResponse": 9,
            "catchResponseTime": 8782,
            "pseudoRound": false,
            "trialTime": 24035
        },
        {
            "exptPart": "trial",
            "trialNumber": 69,
            "roleCurrent": "bullshitter",
            "marblesSampled": 10,
            "probabilityRed": 0.8,
            "drawnRed": 6,
            "reportedDrawn": 7,
            "compLie": -1,
            "compUnifLie": false,
            "compDetect": 0.1980101119999999,
            "callBS": false,
            "playerTrialScore": 7,
            "oppTrialScore": 3,
            "playerTotalScore": 298,
            "oppTotalScore": 132,
            "waitTime": 2078.8301054399026,
            "responseTime": 7283,
            "catchQuestion": "How many red marbles did your opponent report drawing?",
            "catchKey": -1,
            "catchResponse": -1,
            "catchResponseTime": -1,
            "pseudoRound": false,
            "trialTime": 13854
        },
        {
            "exptPart": "trial",
            "trialNumber": 70,
            "roleCurrent": "bullshitDetector",
            "marblesSampled": 10,
            "probabilityRed": 0.8,
            "drawnRed": 10,
            "reportedDrawn": 0,
            "compLie": -1,
            "compUnifLie": false,
            "compDetect": 0.1980101119999999,
            "callBS": false,
            "playerTrialScore": 10,
            "oppTrialScore": 0,
            "playerTotalScore": 308,
            "oppTotalScore": 132,
            "waitTime": 6479.1611975578835,
            "responseTime": 3586,
            "catchQuestion": "How many red marbles did your opponent report drawing?",
            "catchKey": -1,
            "catchResponse": -1,
            "catchResponseTime": -1,
            "pseudoRound": true,
            "trialTime": 19065
        },
        {
            "exptPart": "trial",
            "trialNumber": 71,
            "roleCurrent": "bullshitter",
            "marblesSampled": 10,
            "probabilityRed": 0.8,
            "drawnRed": 10,
            "reportedDrawn": 10,
            "compLie": -1,
            "compUnifLie": false,
            "compDetect": 0.8758096384,
            "callBS": true,
            "playerTrialScore": 10,
            "oppTrialScore": -5,
            "playerTotalScore": 318,
            "oppTotalScore": 127,
            "waitTime": 2380.1045535451563,
            "responseTime": 3181,
            "catchQuestion": "How many red marbles did your opponent report drawing?",
            "catchKey": -1,
            "catchResponse": -1,
            "catchResponseTime": -1,
            "pseudoRound": false,
            "trialTime": 10264
        },
        {
            "exptPart": "trial",
            "trialNumber": 72,
            "roleCurrent": "bullshitDetector",
            "marblesSampled": 10,
            "probabilityRed": 0.8,
            "drawnRed": 8,
            "reportedDrawn": 8,
            "compLie": 7,
            "compUnifLie": false,
            "compDetect": -1,
            "callBS": true,
            "playerTrialScore": -3,
            "oppTrialScore": 8,
            "playerTotalScore": 315,
            "oppTotalScore": 135,
            "waitTime": 5208.8860168519295,
            "responseTime": 13373,
            "catchQuestion": "How many red marbles did your opponent report drawing?",
            "catchKey": -1,
            "catchResponse": -1,
            "catchResponseTime": -1,
            "pseudoRound": false,
            "trialTime": 20200
        },
        {
            "exptPart": "trial",
            "trialNumber": 73,
            "roleCurrent": "bullshitter",
            "marblesSampled": 10,
            "probabilityRed": 0.8,
            "drawnRed": 7,
            "reportedDrawn": 7,
            "compLie": -1,
            "compUnifLie": false,
            "compDetect": 0.1980101119999999,
            "callBS": false,
            "playerTrialScore": 7,
            "oppTrialScore": 3,
            "playerTotalScore": 322,
            "oppTotalScore": 138,
            "waitTime": 3109.5159827616944,
            "responseTime": 2666,
            "catchQuestion": "How many red marbles did your opponent report drawing?",
            "catchKey": -1,
            "catchResponse": -1,
            "catchResponseTime": -1,
            "pseudoRound": false,
            "trialTime": 9531
        },
        {
            "exptPart": "trial",
            "trialNumber": 74,
            "roleCurrent": "bullshitDetector",
            "marblesSampled": 10,
            "probabilityRed": 0.8,
            "drawnRed": 8,
            "reportedDrawn": 8,
            "compLie": 7,
            "compUnifLie": false,
            "compDetect": -1,
            "callBS": false,
            "playerTrialScore": 2,
            "oppTrialScore": 8,
            "playerTotalScore": 324,
            "oppTotalScore": 146,
            "waitTime": 5553.554343599266,
            "responseTime": 4664,
            "catchQuestion": "How many red marbles did your opponent report drawing?",
            "catchKey": -1,
            "catchResponse": -1,
            "catchResponseTime": -1,
            "pseudoRound": false,
            "trialTime": 11551
        },
        {
            "exptPart": "trial",
            "trialNumber": 75,
            "roleCurrent": "bullshitter",
            "marblesSampled": 10,
            "probabilityRed": 0.8,
            "drawnRed": 6,
            "reportedDrawn": 7,
            "compLie": -1,
            "compUnifLie": false,
            "compDetect": 0.1980101119999999,
            "callBS": false,
            "playerTrialScore": 7,
            "oppTrialScore": 3,
            "playerTotalScore": 331,
            "oppTotalScore": 149,
            "waitTime": 2976.3946158789518,
            "responseTime": 2797,
            "catchQuestion": "How many red marbles did your opponent report drawing?",
            "catchKey": -1,
            "catchResponse": -1,
            "catchResponseTime": -1,
            "pseudoRound": false,
            "trialTime": 10618
        },
        {
            "exptPart": "trial",
            "trialNumber": 76,
            "roleCurrent": "bullshitDetector",
            "marblesSampled": 10,
            "probabilityRed": 0.8,
            "drawnRed": 9,
            "reportedDrawn": 4,
            "compLie": -1,
            "compUnifLie": false,
            "compDetect": 0.1980101119999999,
            "callBS": false,
            "playerTrialScore": 6,
            "oppTrialScore": 4,
            "playerTotalScore": 337,
            "oppTotalScore": 153,
            "waitTime": 6856.141393922682,
            "responseTime": 2490,
            "catchQuestion": "How many red marbles did your opponent report drawing?",
            "catchKey": -1,
            "catchResponse": -1,
            "catchResponseTime": -1,
            "pseudoRound": true,
            "trialTime": 12614
        },
        {
            "exptPart": "trial",
            "trialNumber": 77,
            "roleCurrent": "bullshitter",
            "marblesSampled": 10,
            "probabilityRed": 0.8,
            "drawnRed": 8,
            "reportedDrawn": 8,
            "compLie": -1,
            "compUnifLie": false,
            "compDetect": 0.5,
            "callBS": true,
            "playerTrialScore": 8,
            "oppTrialScore": -3,
            "playerTotalScore": 345,
            "oppTotalScore": 150,
            "waitTime": 2295.634107576244,
            "responseTime": 2647,
            "catchQuestion": "How many red marbles did your opponent report drawing?",
            "catchKey": -1,
            "catchResponse": -1,
            "catchResponseTime": -1,
            "pseudoRound": false,
            "trialTime": 9366
        },
        {
            "exptPart": "trial",
            "trialNumber": 78,
            "roleCurrent": "bullshitDetector",
            "marblesSampled": 10,
            "probabilityRed": 0.8,
            "drawnRed": 9,
            "reportedDrawn": 9,
            "compLie": 8,
            "compUnifLie": false,
            "compDetect": -1,
            "callBS": true,
            "playerTrialScore": -4,
            "oppTrialScore": 9,
            "playerTotalScore": 341,
            "oppTotalScore": 159,
            "waitTime": 6176.535744967225,
            "responseTime": 5301,
            "catchQuestion": "How many red marbles did your opponent report drawing?",
            "catchKey": 9,
            "catchResponse": 9,
            "catchResponseTime": 4267,
            "pseudoRound": false,
            "trialTime": 17498
        },
        {
            "exptPart": "trial",
            "trialNumber": 79,
            "roleCurrent": "bullshitter",
            "marblesSampled": 10,
            "probabilityRed": 0.8,
            "drawnRed": 9,
            "reportedDrawn": 9,
            "compLie": -1,
            "compUnifLie": false,
            "compDetect": 0.7684354560000001,
            "callBS": true,
            "playerTrialScore": 9,
            "oppTrialScore": -4,
            "playerTotalScore": 350,
            "oppTotalScore": 155,
            "waitTime": 2457.9900383802296,
            "responseTime": 2631,
            "catchQuestion": "How many red marbles did your opponent report drawing?",
            "catchKey": -1,
            "catchResponse": -1,
            "catchResponseTime": -1,
            "pseudoRound": false,
            "trialTime": 9335
        },
        {
            "exptPart": "trial",
            "trialNumber": 80,
            "roleCurrent": "bullshitDetector",
            "marblesSampled": 10,
            "probabilityRed": 0.8,
            "drawnRed": 10,
            "reportedDrawn": 5,
            "compLie": -1,
            "compUnifLie": false,
            "compDetect": 0.7684354560000001,
            "callBS": true,
            "playerTrialScore": 5,
            "oppTrialScore": -5,
            "playerTotalScore": 355,
            "oppTotalScore": 150,
            "waitTime": 6882.04163617377,
            "responseTime": 2484,
            "catchQuestion": "How many red marbles did your opponent report drawing?",
            "catchKey": -1,
            "catchResponse": -1,
            "catchResponseTime": -1,
            "pseudoRound": true,
            "trialTime": 14568
        },
        {
            "exptPart": "trial",
            "trialNumber": 81,
            "roleCurrent": "bullshitter",
            "marblesSampled": 10,
            "probabilityRed": 0.8,
            "drawnRed": 6,
            "reportedDrawn": 7,
            "compLie": -1,
            "compUnifLie": false,
            "compDetect": 0.1980101119999999,
            "callBS": false,
            "playerTrialScore": 7,
            "oppTrialScore": 3,
            "playerTotalScore": 362,
            "oppTotalScore": 153,
            "waitTime": 2539.343305468551,
            "responseTime": 2915,
            "catchQuestion": "How many red marbles did your opponent report drawing?",
            "catchKey": -1,
            "catchResponse": -1,
            "catchResponseTime": -1,
            "pseudoRound": false,
            "trialTime": 9247
        },
        {
            "exptPart": "trial",
            "trialNumber": 82,
            "roleCurrent": "bullshitDetector",
            "marblesSampled": 10,
            "probabilityRed": 0.8,
            "drawnRed": 8,
            "reportedDrawn": 7,
            "compLie": -1,
            "compUnifLie": false,
            "compDetect": 0.1980101119999999,
            "callBS": false,
            "playerTrialScore": 3,
            "oppTrialScore": 7,
            "playerTotalScore": 365,
            "oppTotalScore": 160,
            "waitTime": 6599.113256721243,
            "responseTime": 3826,
            "catchQuestion": "How many red marbles did your opponent report drawing?",
            "catchKey": -1,
            "catchResponse": -1,
            "catchResponseTime": -1,
            "pseudoRound": true,
            "trialTime": 13249
        },
        {
            "exptPart": "trial",
            "trialNumber": 83,
            "roleCurrent": "bullshitter",
            "marblesSampled": 10,
            "probabilityRed": 0.8,
            "drawnRed": 8,
            "reportedDrawn": 8,
            "compLie": -1,
            "compUnifLie": false,
            "compDetect": 0.5,
            "callBS": false,
            "playerTrialScore": 8,
            "oppTrialScore": 2,
            "playerTotalScore": 373,
            "oppTotalScore": 162,
            "waitTime": 2499.384327683807,
            "responseTime": 2313,
            "catchQuestion": "How many red marbles did your opponent report drawing?",
            "catchKey": -1,
            "catchResponse": -1,
            "catchResponseTime": -1,
            "pseudoRound": false,
            "trialTime": 9082
        },
        {
            "exptPart": "trial",
            "trialNumber": 84,
            "roleCurrent": "bullshitDetector",
            "marblesSampled": 10,
            "probabilityRed": 0.8,
            "drawnRed": 8,
            "reportedDrawn": 8,
            "compLie": 7,
            "compUnifLie": false,
            "compDetect": -1,
            "callBS": true,
            "playerTrialScore": -3,
            "oppTrialScore": 8,
            "playerTotalScore": 370,
            "oppTotalScore": 170,
            "waitTime": 6719.77809085286,
            "responseTime": 6823,
            "catchQuestion": "How many red marbles did your opponent report drawing?",
            "catchKey": -1,
            "catchResponse": -1,
            "catchResponseTime": -1,
            "pseudoRound": false,
            "trialTime": 14831
        },
        {
            "exptPart": "trial",
            "trialNumber": 85,
            "roleCurrent": "bullshitter",
            "marblesSampled": 10,
            "probabilityRed": 0.8,
            "drawnRed": 6,
            "reportedDrawn": 7,
            "compLie": -1,
            "compUnifLie": false,
            "compDetect": 0.1980101119999999,
            "callBS": false,
            "playerTrialScore": 7,
            "oppTrialScore": 3,
            "playerTotalScore": 377,
            "oppTotalScore": 173,
            "waitTime": 3167.6586180247014,
            "responseTime": 2782,
            "catchQuestion": "How many red marbles did your opponent report drawing?",
            "catchKey": -1,
            "catchResponse": -1,
            "catchResponseTime": -1,
            "pseudoRound": false,
            "trialTime": 11918
        },
        {
            "exptPart": "trial",
            "trialNumber": 86,
            "roleCurrent": "bullshitDetector",
            "marblesSampled": 10,
            "probabilityRed": 0.8,
            "drawnRed": 8,
            "reportedDrawn": 5,
            "compLie": -1,
            "compUnifLie": true,
            "compDetect": 0.1980101119999999,
            "callBS": true,
            "playerTrialScore": 5,
            "oppTrialScore": -5,
            "playerTotalScore": 382,
            "oppTotalScore": 168,
            "waitTime": 6990.38726664579,
            "responseTime": 4984,
            "catchQuestion": "How many red marbles did your opponent report drawing?",
            "catchKey": 5,
            "catchResponse": 5,
            "catchResponseTime": 4117,
            "pseudoRound": false,
            "trialTime": 17815
        },
        {
            "exptPart": "trial",
            "trialNumber": 87,
            "roleCurrent": "bullshitter",
            "marblesSampled": 10,
            "probabilityRed": 0.8,
            "drawnRed": 10,
            "reportedDrawn": 10,
            "compLie": -1,
            "compUnifLie": false,
            "compDetect": 0.8758096384,
            "callBS": false,
            "playerTrialScore": 10,
            "oppTrialScore": 0,
            "playerTotalScore": 392,
            "oppTotalScore": 168,
            "waitTime": 2816.3218177696517,
            "responseTime": 2981,
            "catchQuestion": "How many red marbles did your opponent report drawing?",
            "catchKey": -1,
            "catchResponse": -1,
            "catchResponseTime": -1,
            "pseudoRound": true,
            "trialTime": 10717
        },
        {
            "exptPart": "trial",
            "trialNumber": 88,
            "roleCurrent": "bullshitDetector",
            "marblesSampled": 10,
            "probabilityRed": 0.8,
            "drawnRed": 9,
            "reportedDrawn": 9,
            "compLie": 9,
            "compUnifLie": false,
            "compDetect": -1,
            "callBS": false,
            "playerTrialScore": 1,
            "oppTrialScore": 9,
            "playerTotalScore": 393,
            "oppTotalScore": 177,
            "waitTime": 5518.533564240887,
            "responseTime": 4812,
            "catchQuestion": "How many red marbles did your opponent report drawing?",
            "catchKey": -1,
            "catchResponse": -1,
            "catchResponseTime": -1,
            "pseudoRound": false,
            "trialTime": 11682
        },
        {
            "exptPart": "trial",
            "trialNumber": 89,
            "roleCurrent": "bullshitter",
            "marblesSampled": 10,
            "probabilityRed": 0.8,
            "drawnRed": 8,
            "reportedDrawn": 8,
            "compLie": -1,
            "compUnifLie": false,
            "compDetect": 0.5,
            "callBS": true,
            "playerTrialScore": 8,
            "oppTrialScore": -3,
            "playerTotalScore": 401,
            "oppTotalScore": 174,
            "waitTime": 3018.9773588424478,
            "responseTime": 2365,
            "catchQuestion": "How many red marbles did your opponent report drawing?",
            "catchKey": -1,
            "catchResponse": -1,
            "catchResponseTime": -1,
            "pseudoRound": false,
            "trialTime": 9566
        },
        {
            "exptPart": "trial",
            "trialNumber": 90,
            "roleCurrent": "bullshitDetector",
            "marblesSampled": 10,
            "probabilityRed": 0.8,
            "drawnRed": 7,
            "reportedDrawn": 10,
            "compLie": -1,
            "compUnifLie": true,
            "compDetect": 0.5,
            "callBS": true,
            "playerTrialScore": 5,
            "oppTrialScore": -5,
            "playerTotalScore": 406,
            "oppTotalScore": 169,
            "waitTime": 5892.2235703759125,
            "responseTime": 7251,
            "catchQuestion": "How many red marbles did your opponent report drawing?",
            "catchKey": -1,
            "catchResponse": -1,
            "catchResponseTime": -1,
            "pseudoRound": false,
            "trialTime": 21917
        },
        {
            "exptPart": "trial",
            "trialNumber": 91,
            "roleCurrent": "bullshitter",
            "marblesSampled": 10,
            "probabilityRed": 0.8,
            "drawnRed": 9,
            "reportedDrawn": 9,
            "compLie": -1,
            "compUnifLie": false,
            "compDetect": 0.7684354560000001,
            "callBS": true,
            "playerTrialScore": 9,
            "oppTrialScore": -4,
            "playerTotalScore": 415,
            "oppTotalScore": 165,
            "waitTime": 3079.7476311784812,
            "responseTime": 2497,
            "catchQuestion": "How many red marbles did your opponent report drawing?",
            "catchKey": -1,
            "catchResponse": -1,
            "catchResponseTime": -1,
            "pseudoRound": false,
            "trialTime": 10180
        },
        {
            "exptPart": "trial",
            "trialNumber": 92,
            "roleCurrent": "bullshitDetector",
            "marblesSampled": 10,
            "probabilityRed": 0.8,
            "drawnRed": 4,
            "reportedDrawn": 6,
            "compLie": 6,
            "compUnifLie": false,
            "compDetect": -1,
            "callBS": true,
            "playerTrialScore": 5,
            "oppTrialScore": -5,
            "playerTotalScore": 420,
            "oppTotalScore": 160,
            "waitTime": 5324.700598669093,
            "responseTime": 2484,
            "catchQuestion": "How many red marbles did your opponent report drawing?",
            "catchKey": -1,
            "catchResponse": -1,
            "catchResponseTime": -1,
            "pseudoRound": false,
            "trialTime": 9861
        },
        {
            "exptPart": "trial",
            "trialNumber": 93,
            "roleCurrent": "bullshitter",
            "marblesSampled": 10,
            "probabilityRed": 0.8,
            "drawnRed": 10,
            "reportedDrawn": 10,
            "compLie": -1,
            "compUnifLie": false,
            "compDetect": 0.8758096384,
            "callBS": true,
            "playerTrialScore": 10,
            "oppTrialScore": -5,
            "playerTotalScore": 430,
            "oppTotalScore": 155,
            "waitTime": 2665.2366256963614,
            "responseTime": 2866,
            "catchQuestion": "How many red marbles did your opponent report drawing?",
            "catchKey": -1,
            "catchResponse": -1,
            "catchResponseTime": -1,
            "pseudoRound": false,
            "trialTime": 9952
        },
        {
            "exptPart": "trial",
            "trialNumber": 94,
            "roleCurrent": "bullshitDetector",
            "marblesSampled": 10,
            "probabilityRed": 0.8,
            "drawnRed": 7,
            "reportedDrawn": 7,
            "compLie": 7,
            "compUnifLie": false,
            "compDetect": -1,
            "callBS": true,
            "playerTrialScore": -2,
            "oppTrialScore": 7,
            "playerTotalScore": 428,
            "oppTotalScore": 162,
            "waitTime": 6068.698996867073,
            "responseTime": 4046,
            "catchQuestion": "How many red marbles did your opponent report drawing?",
            "catchKey": -1,
            "catchResponse": -1,
            "catchResponseTime": -1,
            "pseudoRound": false,
            "trialTime": 16898
        },
        {
            "exptPart": "trial",
            "trialNumber": 95,
            "roleCurrent": "bullshitter",
            "marblesSampled": 10,
            "probabilityRed": 0.8,
            "drawnRed": 6,
            "reportedDrawn": 7,
            "compLie": -1,
            "compUnifLie": false,
            "compDetect": 0.1980101119999999,
            "callBS": false,
            "playerTrialScore": 7,
            "oppTrialScore": 3,
            "playerTotalScore": 435,
            "oppTotalScore": 165,
            "waitTime": 2724.7767575912003,
            "responseTime": 2331,
            "catchQuestion": "How many red marbles did your opponent report drawing?",
            "catchKey": -1,
            "catchResponse": -1,
            "catchResponseTime": -1,
            "pseudoRound": true,
            "trialTime": 11469
        },
        {
            "exptPart": "trial",
            "trialNumber": 96,
            "roleCurrent": "bullshitDetector",
            "marblesSampled": 10,
            "probabilityRed": 0.8,
            "drawnRed": 8,
            "reportedDrawn": 9,
            "compLie": -1,
            "compUnifLie": false,
            "compDetect": 0.1980101119999999,
            "callBS": false,
            "playerTrialScore": 1,
            "oppTrialScore": 9,
            "playerTotalScore": 436,
            "oppTotalScore": 174,
            "waitTime": 6281.07757209944,
            "responseTime": 5214,
            "catchQuestion": "How many red marbles did your opponent report drawing?",
            "catchKey": 9,
            "catchResponse": 9,
            "catchResponseTime": 3015,
            "pseudoRound": true,
            "trialTime": 16402
        },
        {
            "exptPart": "trial",
            "trialNumber": 97,
            "roleCurrent": "bullshitter",
            "marblesSampled": 10,
            "probabilityRed": 0.8,
            "drawnRed": 3,
            "reportedDrawn": 6,
            "compLie": -1,
            "compUnifLie": false,
            "compDetect": -0.0033164800000000383,
            "callBS": false,
            "playerTrialScore": 6,
            "oppTrialScore": 4,
            "playerTotalScore": 442,
            "oppTotalScore": 178,
            "waitTime": 2203.7661046515805,
            "responseTime": 8064,
            "catchQuestion": "How many red marbles did your opponent report drawing?",
            "catchKey": -1,
            "catchResponse": -1,
            "catchResponseTime": -1,
            "pseudoRound": true,
            "trialTime": 14228
        },
        {
            "exptPart": "trial",
            "trialNumber": 98,
            "roleCurrent": "bullshitDetector",
            "marblesSampled": 10,
            "probabilityRed": 0.8,
            "drawnRed": 9,
            "reportedDrawn": 9,
            "compLie": 8,
            "compUnifLie": false,
            "compDetect": -1,
            "callBS": false,
            "playerTrialScore": 1,
            "oppTrialScore": 9,
            "playerTotalScore": 443,
            "oppTotalScore": 187,
            "waitTime": 5966.970454763871,
            "responseTime": 6182,
            "catchQuestion": "How many red marbles did your opponent report drawing?",
            "catchKey": -1,
            "catchResponse": -1,
            "catchResponseTime": -1,
            "pseudoRound": false,
            "trialTime": 13616
        },
        {
            "exptPart": "trial",
            "trialNumber": 99,
            "roleCurrent": "bullshitter",
            "marblesSampled": 10,
            "probabilityRed": 0.8,
            "drawnRed": 8,
            "reportedDrawn": 8,
            "compLie": -1,
            "compUnifLie": false,
            "compDetect": 0.5,
            "callBS": false,
            "playerTrialScore": 8,
            "oppTrialScore": 2,
            "playerTotalScore": 451,
            "oppTotalScore": 189,
            "waitTime": 2938.3209816326653,
            "responseTime": 2398,
            "catchQuestion": "How many red marbles did your opponent report drawing?",
            "catchKey": -1,
            "catchResponse": -1,
            "catchResponseTime": -1,
            "pseudoRound": false,
            "trialTime": 10364
        },
        {
            "exptPart": "trial",
            "trialNumber": 100,
            "roleCurrent": "bullshitDetector",
            "marblesSampled": 10,
            "probabilityRed": 0.8,
            "drawnRed": 6,
            "reportedDrawn": 7,
            "compLie": 7,
            "compUnifLie": false,
            "compDetect": -1,
            "callBS": false,
            "playerTrialScore": 3,
            "oppTrialScore": 7,
            "playerTotalScore": 454,
            "oppTotalScore": 196,
            "waitTime": 6894.622464925604,
            "responseTime": 4568,
            "catchQuestion": "How many red marbles did your opponent report drawing?",
            "catchKey": -1,
            "catchResponse": -1,
            "catchResponseTime": -1,
            "pseudoRound": false,
            "trialTime": 14900
        }
    ]
}