{
    "client": {
        "type": "sona",
        "experiment_id": 1505,
        "credit_token": "b20092f9d3b34a378ee654bcc50710ea",
        "survey_code": "41515",
        "sid": "sona-41515",
        "window": {
            "width": 1440,
            "height": 764
        },
        "screen": {
            "width": 1440,
            "height": 900
        },
        "userAgent": "Mozilla\/5.0 (Macintosh; Intel Mac OS X 10_15_7) AppleWebKit\/537.36 (KHTML, like Gecko) Chrome\/95.0.4638.69 Safari\/537.36",
        "score": 0,
        "bonus": 0
    },
    "expt": {
        "saveURL": "submit.simple.php",
        "trials": 100,
        "practiceTrials": 4,
        "marblesSampled": 10,
        "roles": [
            "bullshitter",
            "bullshitDetector"
        ],
        "roleFirst": "bullshitter",
        "allTrialProbs": [
            0.2,
            0.5,
            0.8
        ],
        "trialProbs": 0.5,
        "catchTrials": [
            3,
            16,
            23,
            35,
            40,
            50,
            60,
            74,
            83,
            95
        ],
        "pseudo": {
            "8": 6,
            "10": 7,
            "12": 1,
            "13": 0,
            "29": 4,
            "39": 5,
            "45": 7,
            "49": 10,
            "59": 1,
            "62": 9,
            "65": 6,
            "66": 0,
            "68": 3,
            "69": 3,
            "71": 9,
            "76": 10,
            "82": 4,
            "89": 8,
            "90": 2,
            "92": 8,
            "94": 5,
            "101": 2
        },
        "stat": {
            "playerTotalScore": 339,
            "oppTotalScore": 276,
            "truth": 35,
            "truth_noBS": 16,
            "truth_BS": 19,
            "lie": 15,
            "lie_noBS": 5,
            "lie_BS": 10,
            "noBS": 27,
            "noBS_truth": 14,
            "noBS_lie": 13,
            "BS": 23,
            "BS_truth": 8,
            "BS_lie": 15
        },
        "sona": {
            "experiment_id": 1505,
            "credit_token": "b20092f9d3b34a378ee654bcc50710ea"
        }
    },
    "trials": [
        {
            "exptPart": "practice",
            "trialNumber": 1,
            "roleCurrent": "bullshitter",
            "marblesSampled": 10,
            "probabilityRed": 0.5,
            "drawnRed": 5,
            "reportedDrawn": 5,
            "compLie": -1,
            "compUnifLie": false,
            "compDetect": 0.5,
            "callBS": false,
            "playerTrialScore": 5,
            "oppTrialScore": 5,
            "playerTotalScore": 5,
            "oppTotalScore": 5,
            "waitTime": 2087.918463038013,
            "responseTime": 15361,
            "catchQuestion": "",
            "catchKey": -1,
            "catchResponse": -1,
            "catchResponseTime": -1,
            "pseudoRound": false,
            "trialTime": 38012
        },
        {
            "exptPart": "practice",
            "trialNumber": 2,
            "roleCurrent": "bullshitDetector",
            "marblesSampled": 10,
            "probabilityRed": 0.5,
            "drawnRed": 4,
            "reportedDrawn": 0,
            "compLie": -1,
            "compUnifLie": true,
            "compDetect": 0.5,
            "callBS": true,
            "playerTrialScore": 5,
            "oppTrialScore": -5,
            "playerTotalScore": 10,
            "oppTotalScore": 0,
            "waitTime": 6378.419065450147,
            "responseTime": 6093,
            "catchQuestion": "How many red marbles did your opponent report drawing?",
            "catchKey": 0,
            "catchResponse": 0,
            "catchResponseTime": 8791,
            "pseudoRound": false,
            "trialTime": 29943
        },
        {
            "exptPart": "practice",
            "trialNumber": 3,
            "roleCurrent": "bullshitter",
            "marblesSampled": 10,
            "probabilityRed": 0.5,
            "drawnRed": 5,
            "reportedDrawn": 6,
            "compLie": -1,
            "compUnifLie": false,
            "compDetect": 0.705078125,
            "callBS": true,
            "playerTrialScore": -5,
            "oppTrialScore": 5,
            "playerTotalScore": 5,
            "oppTotalScore": 5,
            "waitTime": 2381.7253318412195,
            "responseTime": 3729,
            "catchQuestion": "How many red marbles did your opponent report drawing?",
            "catchKey": -1,
            "catchResponse": -1,
            "catchResponseTime": -1,
            "pseudoRound": false,
            "trialTime": 12169
        },
        {
            "exptPart": "practice",
            "trialNumber": 4,
            "roleCurrent": "bullshitDetector",
            "marblesSampled": 10,
            "probabilityRed": 0.5,
            "drawnRed": 4,
            "reportedDrawn": 8,
            "compLie": 8,
            "compUnifLie": false,
            "compDetect": -1,
            "callBS": true,
            "playerTrialScore": 5,
            "oppTrialScore": -5,
            "playerTotalScore": 10,
            "oppTotalScore": 0,
            "waitTime": 6042.598098504026,
            "responseTime": 6043,
            "catchQuestion": "How many red marbles did your opponent report drawing?",
            "catchKey": 8,
            "catchResponse": 8,
            "catchResponseTime": 2691,
            "pseudoRound": false,
            "trialTime": 21051
        },
        {
            "exptPart": "trial",
            "trialNumber": 1,
            "roleCurrent": "bullshitter",
            "marblesSampled": 10,
            "probabilityRed": 0.5,
            "drawnRed": 7,
            "reportedDrawn": 6,
            "compLie": -1,
            "compUnifLie": false,
            "compDetect": 0.705078125,
            "callBS": false,
            "playerTrialScore": 6,
            "oppTrialScore": 4,
            "playerTotalScore": 6,
            "oppTotalScore": 4,
            "waitTime": 3053.481911001113,
            "responseTime": 7788,
            "catchQuestion": "How many red marbles did your opponent report drawing?",
            "catchKey": -1,
            "catchResponse": -1,
            "catchResponseTime": -1,
            "pseudoRound": false,
            "trialTime": 15682
        },
        {
            "exptPart": "trial",
            "trialNumber": 2,
            "roleCurrent": "bullshitDetector",
            "marblesSampled": 10,
            "probabilityRed": 0.5,
            "drawnRed": 3,
            "reportedDrawn": 8,
            "compLie": 8,
            "compUnifLie": false,
            "compDetect": -1,
            "callBS": true,
            "playerTrialScore": 5,
            "oppTrialScore": -5,
            "playerTotalScore": 11,
            "oppTotalScore": -1,
            "waitTime": 5792.189484684877,
            "responseTime": 5686,
            "catchQuestion": "How many red marbles did your opponent report drawing?",
            "catchKey": -1,
            "catchResponse": -1,
            "catchResponseTime": -1,
            "pseudoRound": false,
            "trialTime": 13659
        },
        {
            "exptPart": "trial",
            "trialNumber": 3,
            "roleCurrent": "bullshitter",
            "marblesSampled": 10,
            "probabilityRed": 0.5,
            "drawnRed": 5,
            "reportedDrawn": 5,
            "compLie": -1,
            "compUnifLie": false,
            "compDetect": 0.5,
            "callBS": false,
            "playerTrialScore": 5,
            "oppTrialScore": 5,
            "playerTotalScore": 16,
            "oppTotalScore": 4,
            "waitTime": 2069.5427756835797,
            "responseTime": 2926,
            "catchQuestion": "How many red marbles did your opponent report drawing?",
            "catchKey": -1,
            "catchResponse": -1,
            "catchResponseTime": -1,
            "pseudoRound": false,
            "trialTime": 10060
        },
        {
            "exptPart": "trial",
            "trialNumber": 4,
            "roleCurrent": "bullshitDetector",
            "marblesSampled": 10,
            "probabilityRed": 0.5,
            "drawnRed": 4,
            "reportedDrawn": 8,
            "compLie": 8,
            "compUnifLie": false,
            "compDetect": -1,
            "callBS": false,
            "playerTrialScore": 2,
            "oppTrialScore": 8,
            "playerTotalScore": 18,
            "oppTotalScore": 12,
            "waitTime": 5849.772186949614,
            "responseTime": 1555,
            "catchQuestion": "How many red marbles did your opponent report drawing?",
            "catchKey": 8,
            "catchResponse": 8,
            "catchResponseTime": 2610,
            "pseudoRound": false,
            "trialTime": 11715
        },
        {
            "exptPart": "trial",
            "trialNumber": 5,
            "roleCurrent": "bullshitter",
            "marblesSampled": 10,
            "probabilityRed": 0.5,
            "drawnRed": 3,
            "reportedDrawn": 4,
            "compLie": -1,
            "compUnifLie": false,
            "compDetect": 0.25390625,
            "callBS": false,
            "playerTrialScore": 4,
            "oppTrialScore": 6,
            "playerTotalScore": 22,
            "oppTotalScore": 18,
            "waitTime": 3124.516761410426,
            "responseTime": 7099,
            "catchQuestion": "How many red marbles did your opponent report drawing?",
            "catchKey": -1,
            "catchResponse": -1,
            "catchResponseTime": -1,
            "pseudoRound": false,
            "trialTime": 15850
        },
        {
            "exptPart": "trial",
            "trialNumber": 6,
            "roleCurrent": "bullshitDetector",
            "marblesSampled": 10,
            "probabilityRed": 0.5,
            "drawnRed": 6,
            "reportedDrawn": 7,
            "compLie": 7,
            "compUnifLie": false,
            "compDetect": -1,
            "callBS": true,
            "playerTrialScore": 5,
            "oppTrialScore": -5,
            "playerTotalScore": 27,
            "oppTotalScore": 13,
            "waitTime": 6339.991289539111,
            "responseTime": 3767,
            "catchQuestion": "How many red marbles did your opponent report drawing?",
            "catchKey": -1,
            "catchResponse": -1,
            "catchResponseTime": -1,
            "pseudoRound": false,
            "trialTime": 11754
        },
        {
            "exptPart": "trial",
            "trialNumber": 7,
            "roleCurrent": "bullshitter",
            "marblesSampled": 10,
            "probabilityRed": 0.5,
            "drawnRed": 7,
            "reportedDrawn": 7,
            "compLie": -1,
            "compUnifLie": false,
            "compDetect": 0.822265625,
            "callBS": true,
            "playerTrialScore": 7,
            "oppTrialScore": -2,
            "playerTotalScore": 34,
            "oppTotalScore": 11,
            "waitTime": 2301.186900100258,
            "responseTime": 2562,
            "catchQuestion": "How many red marbles did your opponent report drawing?",
            "catchKey": -1,
            "catchResponse": -1,
            "catchResponseTime": -1,
            "pseudoRound": false,
            "trialTime": 9179
        },
        {
            "exptPart": "trial",
            "trialNumber": 8,
            "roleCurrent": "bullshitDetector",
            "marblesSampled": 10,
            "probabilityRed": 0.5,
            "drawnRed": 5,
            "reportedDrawn": 1,
            "compLie": -1,
            "compUnifLie": true,
            "compDetect": 0.822265625,
            "callBS": false,
            "playerTrialScore": 9,
            "oppTrialScore": 1,
            "playerTotalScore": 43,
            "oppTotalScore": 12,
            "waitTime": 5327.4572127829815,
            "responseTime": 5153,
            "catchQuestion": "How many red marbles did your opponent report drawing?",
            "catchKey": -1,
            "catchResponse": -1,
            "catchResponseTime": -1,
            "pseudoRound": false,
            "trialTime": 12455
        },
        {
            "exptPart": "trial",
            "trialNumber": 9,
            "roleCurrent": "bullshitter",
            "marblesSampled": 10,
            "probabilityRed": 0.5,
            "drawnRed": 6,
            "reportedDrawn": 5,
            "compLie": -1,
            "compUnifLie": false,
            "compDetect": 0.5,
            "callBS": true,
            "playerTrialScore": -5,
            "oppTrialScore": 5,
            "playerTotalScore": 38,
            "oppTotalScore": 17,
            "waitTime": 3078.5615820389353,
            "responseTime": 2928,
            "catchQuestion": "How many red marbles did your opponent report drawing?",
            "catchKey": -1,
            "catchResponse": -1,
            "catchResponseTime": -1,
            "pseudoRound": true,
            "trialTime": 10592
        },
        {
            "exptPart": "trial",
            "trialNumber": 10,
            "roleCurrent": "bullshitDetector",
            "marblesSampled": 10,
            "probabilityRed": 0.5,
            "drawnRed": 7,
            "reportedDrawn": 7,
            "compLie": 4,
            "compUnifLie": false,
            "compDetect": -1,
            "callBS": false,
            "playerTrialScore": 3,
            "oppTrialScore": 7,
            "playerTotalScore": 41,
            "oppTotalScore": 24,
            "waitTime": 5267.372935404806,
            "responseTime": 2412,
            "catchQuestion": "How many red marbles did your opponent report drawing?",
            "catchKey": -1,
            "catchResponse": -1,
            "catchResponseTime": -1,
            "pseudoRound": false,
            "trialTime": 9777
        },
        {
            "exptPart": "trial",
            "trialNumber": 11,
            "roleCurrent": "bullshitter",
            "marblesSampled": 10,
            "probabilityRed": 0.5,
            "drawnRed": 7,
            "reportedDrawn": 5,
            "compLie": -1,
            "compUnifLie": false,
            "compDetect": 0.5,
            "callBS": true,
            "playerTrialScore": -5,
            "oppTrialScore": 5,
            "playerTotalScore": 36,
            "oppTotalScore": 29,
            "waitTime": 2197.727101978434,
            "responseTime": 2600,
            "catchQuestion": "How many red marbles did your opponent report drawing?",
            "catchKey": -1,
            "catchResponse": -1,
            "catchResponseTime": -1,
            "pseudoRound": true,
            "trialTime": 8725
        },
        {
            "exptPart": "trial",
            "trialNumber": 12,
            "roleCurrent": "bullshitDetector",
            "marblesSampled": 10,
            "probabilityRed": 0.5,
            "drawnRed": 5,
            "reportedDrawn": 8,
            "compLie": -1,
            "compUnifLie": true,
            "compDetect": 0.5,
            "callBS": true,
            "playerTrialScore": 5,
            "oppTrialScore": -5,
            "playerTotalScore": 41,
            "oppTotalScore": 24,
            "waitTime": 6525.101908329092,
            "responseTime": 1704,
            "catchQuestion": "How many red marbles did your opponent report drawing?",
            "catchKey": -1,
            "catchResponse": -1,
            "catchResponseTime": -1,
            "pseudoRound": false,
            "trialTime": 9507
        },
        {
            "exptPart": "trial",
            "trialNumber": 13,
            "roleCurrent": "bullshitter",
            "marblesSampled": 10,
            "probabilityRed": 0.5,
            "drawnRed": 1,
            "reportedDrawn": 1,
            "compLie": -1,
            "compUnifLie": false,
            "compDetect": -0.1123046875,
            "callBS": false,
            "playerTrialScore": 1,
            "oppTrialScore": 9,
            "playerTotalScore": 42,
            "oppTotalScore": 33,
            "waitTime": 2080.360103535976,
            "responseTime": 3363,
            "catchQuestion": "How many red marbles did your opponent report drawing?",
            "catchKey": -1,
            "catchResponse": -1,
            "catchResponseTime": -1,
            "pseudoRound": true,
            "trialTime": 9541
        },
        {
            "exptPart": "trial",
            "trialNumber": 14,
            "roleCurrent": "bullshitDetector",
            "marblesSampled": 10,
            "probabilityRed": 0.5,
            "drawnRed": 6,
            "reportedDrawn": 0,
            "compLie": -1,
            "compUnifLie": false,
            "compDetect": -0.1123046875,
            "callBS": false,
            "playerTrialScore": 10,
            "oppTrialScore": 0,
            "playerTotalScore": 52,
            "oppTotalScore": 33,
            "waitTime": 5310.717288569183,
            "responseTime": 3333,
            "catchQuestion": "How many red marbles did your opponent report drawing?",
            "catchKey": -1,
            "catchResponse": -1,
            "catchResponseTime": -1,
            "pseudoRound": true,
            "trialTime": 10114
        },
        {
            "exptPart": "trial",
            "trialNumber": 15,
            "roleCurrent": "bullshitter",
            "marblesSampled": 10,
            "probabilityRed": 0.5,
            "drawnRed": 3,
            "reportedDrawn": 6,
            "compLie": -1,
            "compUnifLie": false,
            "compDetect": 0.705078125,
            "callBS": true,
            "playerTrialScore": -5,
            "oppTrialScore": 5,
            "playerTotalScore": 47,
            "oppTotalScore": 38,
            "waitTime": 2578.5030886471927,
            "responseTime": 22451,
            "catchQuestion": "How many red marbles did your opponent report drawing?",
            "catchKey": -1,
            "catchResponse": -1,
            "catchResponseTime": -1,
            "pseudoRound": false,
            "trialTime": 29281
        },
        {
            "exptPart": "trial",
            "trialNumber": 16,
            "roleCurrent": "bullshitDetector",
            "marblesSampled": 10,
            "probabilityRed": 0.5,
            "drawnRed": 6,
            "reportedDrawn": 6,
            "compLie": 6,
            "compUnifLie": false,
            "compDetect": -1,
            "callBS": false,
            "playerTrialScore": 4,
            "oppTrialScore": 6,
            "playerTotalScore": 51,
            "oppTotalScore": 44,
            "waitTime": 6608.822589177258,
            "responseTime": 59921,
            "catchQuestion": "How many red marbles did your opponent report drawing?",
            "catchKey": -1,
            "catchResponse": -1,
            "catchResponseTime": -1,
            "pseudoRound": false,
            "trialTime": 68618
        },
        {
            "exptPart": "trial",
            "trialNumber": 17,
            "roleCurrent": "bullshitter",
            "marblesSampled": 10,
            "probabilityRed": 0.5,
            "drawnRed": 3,
            "reportedDrawn": 4,
            "compLie": -1,
            "compUnifLie": false,
            "compDetect": 0.25390625,
            "callBS": true,
            "playerTrialScore": -5,
            "oppTrialScore": 5,
            "playerTotalScore": 46,
            "oppTotalScore": 49,
            "waitTime": 2637.271679405242,
            "responseTime": 2517,
            "catchQuestion": "How many red marbles did you actually draw?",
            "catchKey": 3,
            "catchResponse": 3,
            "catchResponseTime": 3697,
            "pseudoRound": false,
            "trialTime": 13242
        },
        {
            "exptPart": "trial",
            "trialNumber": 18,
            "roleCurrent": "bullshitDetector",
            "marblesSampled": 10,
            "probabilityRed": 0.5,
            "drawnRed": 6,
            "reportedDrawn": 6,
            "compLie": 5,
            "compUnifLie": false,
            "compDetect": -1,
            "callBS": true,
            "playerTrialScore": -1,
            "oppTrialScore": 6,
            "playerTotalScore": 45,
            "oppTotalScore": 55,
            "waitTime": 5390.007279850946,
            "responseTime": 1768,
            "catchQuestion": "How many red marbles did you actually draw?",
            "catchKey": -1,
            "catchResponse": -1,
            "catchResponseTime": -1,
            "pseudoRound": false,
            "trialTime": 8916
        },
        {
            "exptPart": "trial",
            "trialNumber": 19,
            "roleCurrent": "bullshitter",
            "marblesSampled": 10,
            "probabilityRed": 0.5,
            "drawnRed": 4,
            "reportedDrawn": 5,
            "compLie": -1,
            "compUnifLie": false,
            "compDetect": 0.5,
            "callBS": true,
            "playerTrialScore": -5,
            "oppTrialScore": 5,
            "playerTotalScore": 40,
            "oppTotalScore": 60,
            "waitTime": 2764.5971524826064,
            "responseTime": 3104,
            "catchQuestion": "How many red marbles did you actually draw?",
            "catchKey": -1,
            "catchResponse": -1,
            "catchResponseTime": -1,
            "pseudoRound": false,
            "trialTime": 9639
        },
        {
            "exptPart": "trial",
            "trialNumber": 20,
            "roleCurrent": "bullshitDetector",
            "marblesSampled": 10,
            "probabilityRed": 0.5,
            "drawnRed": 4,
            "reportedDrawn": 5,
            "compLie": -1,
            "compUnifLie": true,
            "compDetect": 0.5,
            "callBS": false,
            "playerTrialScore": 5,
            "oppTrialScore": 5,
            "playerTotalScore": 45,
            "oppTotalScore": 65,
            "waitTime": 5739.216802305191,
            "responseTime": 3544,
            "catchQuestion": "How many red marbles did you actually draw?",
            "catchKey": -1,
            "catchResponse": -1,
            "catchResponseTime": -1,
            "pseudoRound": false,
            "trialTime": 12129
        },
        {
            "exptPart": "trial",
            "trialNumber": 21,
            "roleCurrent": "bullshitter",
            "marblesSampled": 10,
            "probabilityRed": 0.5,
            "drawnRed": 6,
            "reportedDrawn": 5,
            "compLie": -1,
            "compUnifLie": false,
            "compDetect": 0.5,
            "callBS": true,
            "playerTrialScore": -5,
            "oppTrialScore": 5,
            "playerTotalScore": 40,
            "oppTotalScore": 70,
            "waitTime": 2448.7002287994346,
            "responseTime": 3914,
            "catchQuestion": "How many red marbles did you actually draw?",
            "catchKey": -1,
            "catchResponse": -1,
            "catchResponseTime": -1,
            "pseudoRound": false,
            "trialTime": 11032
        },
        {
            "exptPart": "trial",
            "trialNumber": 22,
            "roleCurrent": "bullshitDetector",
            "marblesSampled": 10,
            "probabilityRed": 0.5,
            "drawnRed": 5,
            "reportedDrawn": 8,
            "compLie": 8,
            "compUnifLie": false,
            "compDetect": -1,
            "callBS": true,
            "playerTrialScore": 5,
            "oppTrialScore": -5,
            "playerTotalScore": 45,
            "oppTotalScore": 65,
            "waitTime": 7262.511324802688,
            "responseTime": 5238,
            "catchQuestion": "How many red marbles did you actually draw?",
            "catchKey": -1,
            "catchResponse": -1,
            "catchResponseTime": -1,
            "pseudoRound": false,
            "trialTime": 15697
        },
        {
            "exptPart": "trial",
            "trialNumber": 23,
            "roleCurrent": "bullshitter",
            "marblesSampled": 10,
            "probabilityRed": 0.5,
            "drawnRed": 5,
            "reportedDrawn": 5,
            "compLie": -1,
            "compUnifLie": false,
            "compDetect": 0.5,
            "callBS": false,
            "playerTrialScore": 5,
            "oppTrialScore": 5,
            "playerTotalScore": 50,
            "oppTotalScore": 70,
            "waitTime": 2663.9380924833963,
            "responseTime": 2301,
            "catchQuestion": "How many red marbles did you actually draw?",
            "catchKey": -1,
            "catchResponse": -1,
            "catchResponseTime": -1,
            "pseudoRound": false,
            "trialTime": 9026
        },
        {
            "exptPart": "trial",
            "trialNumber": 24,
            "roleCurrent": "bullshitDetector",
            "marblesSampled": 10,
            "probabilityRed": 0.5,
            "drawnRed": 5,
            "reportedDrawn": 7,
            "compLie": 7,
            "compUnifLie": false,
            "compDetect": -1,
            "callBS": false,
            "playerTrialScore": 3,
            "oppTrialScore": 7,
            "playerTotalScore": 53,
            "oppTotalScore": 77,
            "waitTime": 7201.760034004764,
            "responseTime": 1607,
            "catchQuestion": "How many red marbles did your opponent report drawing?",
            "catchKey": 7,
            "catchResponse": 7,
            "catchResponseTime": 2894,
            "pseudoRound": false,
            "trialTime": 17251
        },
        {
            "exptPart": "trial",
            "trialNumber": 25,
            "roleCurrent": "bullshitter",
            "marblesSampled": 10,
            "probabilityRed": 0.5,
            "drawnRed": 5,
            "reportedDrawn": 5,
            "compLie": -1,
            "compUnifLie": false,
            "compDetect": 0.5,
            "callBS": true,
            "playerTrialScore": 5,
            "oppTrialScore": 0,
            "playerTotalScore": 58,
            "oppTotalScore": 77,
            "waitTime": 2583.828431569689,
            "responseTime": 1716,
            "catchQuestion": "How many red marbles did your opponent report drawing?",
            "catchKey": -1,
            "catchResponse": -1,
            "catchResponseTime": -1,
            "pseudoRound": false,
            "trialTime": 9551
        },
        {
            "exptPart": "trial",
            "trialNumber": 26,
            "roleCurrent": "bullshitDetector",
            "marblesSampled": 10,
            "probabilityRed": 0.5,
            "drawnRed": 5,
            "reportedDrawn": 5,
            "compLie": 2,
            "compUnifLie": false,
            "compDetect": -1,
            "callBS": false,
            "playerTrialScore": 5,
            "oppTrialScore": 5,
            "playerTotalScore": 63,
            "oppTotalScore": 82,
            "waitTime": 5822.886818970146,
            "responseTime": 1468,
            "catchQuestion": "How many red marbles did your opponent report drawing?",
            "catchKey": -1,
            "catchResponse": -1,
            "catchResponseTime": -1,
            "pseudoRound": false,
            "trialTime": 8931
        },
        {
            "exptPart": "trial",
            "trialNumber": 27,
            "roleCurrent": "bullshitter",
            "marblesSampled": 10,
            "probabilityRed": 0.5,
            "drawnRed": 5,
            "reportedDrawn": 7,
            "compLie": -1,
            "compUnifLie": false,
            "compDetect": 0.822265625,
            "callBS": true,
            "playerTrialScore": -5,
            "oppTrialScore": 5,
            "playerTotalScore": 58,
            "oppTotalScore": 87,
            "waitTime": 2364.6827149786786,
            "responseTime": 2690,
            "catchQuestion": "How many red marbles did your opponent report drawing?",
            "catchKey": -1,
            "catchResponse": -1,
            "catchResponseTime": -1,
            "pseudoRound": false,
            "trialTime": 9250
        },
        {
            "exptPart": "trial",
            "trialNumber": 28,
            "roleCurrent": "bullshitDetector",
            "marblesSampled": 10,
            "probabilityRed": 0.5,
            "drawnRed": 7,
            "reportedDrawn": 7,
            "compLie": 5,
            "compUnifLie": false,
            "compDetect": -1,
            "callBS": true,
            "playerTrialScore": -2,
            "oppTrialScore": 7,
            "playerTotalScore": 56,
            "oppTotalScore": 94,
            "waitTime": 5722.6387631968155,
            "responseTime": 1961,
            "catchQuestion": "How many red marbles did your opponent report drawing?",
            "catchKey": -1,
            "catchResponse": -1,
            "catchResponseTime": -1,
            "pseudoRound": false,
            "trialTime": 9781
        },
        {
            "exptPart": "trial",
            "trialNumber": 29,
            "roleCurrent": "bullshitter",
            "marblesSampled": 10,
            "probabilityRed": 0.5,
            "drawnRed": 6,
            "reportedDrawn": 6,
            "compLie": -1,
            "compUnifLie": false,
            "compDetect": 0.705078125,
            "callBS": true,
            "playerTrialScore": 6,
            "oppTrialScore": -1,
            "playerTotalScore": 62,
            "oppTotalScore": 93,
            "waitTime": 2252.685825691159,
            "responseTime": 1984,
            "catchQuestion": "How many red marbles did your opponent report drawing?",
            "catchKey": -1,
            "catchResponse": -1,
            "catchResponseTime": -1,
            "pseudoRound": false,
            "trialTime": 8448
        },
        {
            "exptPart": "trial",
            "trialNumber": 30,
            "roleCurrent": "bullshitDetector",
            "marblesSampled": 10,
            "probabilityRed": 0.5,
            "drawnRed": 4,
            "reportedDrawn": 4,
            "compLie": -1,
            "compUnifLie": false,
            "compDetect": 0.705078125,
            "callBS": true,
            "playerTrialScore": 1,
            "oppTrialScore": 4,
            "playerTotalScore": 63,
            "oppTotalScore": 97,
            "waitTime": 6993.821319639705,
            "responseTime": 5365,
            "catchQuestion": "How many red marbles did your opponent report drawing?",
            "catchKey": -1,
            "catchResponse": -1,
            "catchResponseTime": -1,
            "pseudoRound": true,
            "trialTime": 14947
        },
        {
            "exptPart": "trial",
            "trialNumber": 31,
            "roleCurrent": "bullshitter",
            "marblesSampled": 10,
            "probabilityRed": 0.5,
            "drawnRed": 6,
            "reportedDrawn": 5,
            "compLie": -1,
            "compUnifLie": false,
            "compDetect": 0.5,
            "callBS": false,
            "playerTrialScore": 5,
            "oppTrialScore": 5,
            "playerTotalScore": 68,
            "oppTotalScore": 102,
            "waitTime": 2830.814935319142,
            "responseTime": 5335,
            "catchQuestion": "How many red marbles did your opponent report drawing?",
            "catchKey": -1,
            "catchResponse": -1,
            "catchResponseTime": -1,
            "pseudoRound": false,
            "trialTime": 11620
        },
        {
            "exptPart": "trial",
            "trialNumber": 32,
            "roleCurrent": "bullshitDetector",
            "marblesSampled": 10,
            "probabilityRed": 0.5,
            "drawnRed": 5,
            "reportedDrawn": 5,
            "compLie": 5,
            "compUnifLie": false,
            "compDetect": -1,
            "callBS": false,
            "playerTrialScore": 5,
            "oppTrialScore": 5,
            "playerTotalScore": 73,
            "oppTotalScore": 107,
            "waitTime": 6895.363248418867,
            "responseTime": 1341,
            "catchQuestion": "How many red marbles did your opponent report drawing?",
            "catchKey": -1,
            "catchResponse": -1,
            "catchResponseTime": -1,
            "pseudoRound": false,
            "trialTime": 10623
        },
        {
            "exptPart": "trial",
            "trialNumber": 33,
            "roleCurrent": "bullshitter",
            "marblesSampled": 10,
            "probabilityRed": 0.5,
            "drawnRed": 5,
            "reportedDrawn": 5,
            "compLie": -1,
            "compUnifLie": false,
            "compDetect": 0.5,
            "callBS": true,
            "playerTrialScore": 5,
            "oppTrialScore": 0,
            "playerTotalScore": 78,
            "oppTotalScore": 107,
            "waitTime": 2486.1429844546665,
            "responseTime": 2885,
            "catchQuestion": "How many red marbles did your opponent report drawing?",
            "catchKey": -1,
            "catchResponse": -1,
            "catchResponseTime": -1,
            "pseudoRound": false,
            "trialTime": 8845
        },
        {
            "exptPart": "trial",
            "trialNumber": 34,
            "roleCurrent": "bullshitDetector",
            "marblesSampled": 10,
            "probabilityRed": 0.5,
            "drawnRed": 6,
            "reportedDrawn": 6,
            "compLie": 4,
            "compUnifLie": false,
            "compDetect": -1,
            "callBS": false,
            "playerTrialScore": 4,
            "oppTrialScore": 6,
            "playerTotalScore": 82,
            "oppTotalScore": 113,
            "waitTime": 5527.6672711668225,
            "responseTime": 3091,
            "catchQuestion": "How many red marbles did your opponent report drawing?",
            "catchKey": -1,
            "catchResponse": -1,
            "catchResponseTime": -1,
            "pseudoRound": false,
            "trialTime": 10041
        },
        {
            "exptPart": "trial",
            "trialNumber": 35,
            "roleCurrent": "bullshitter",
            "marblesSampled": 10,
            "probabilityRed": 0.5,
            "drawnRed": 6,
            "reportedDrawn": 6,
            "compLie": -1,
            "compUnifLie": false,
            "compDetect": 0.705078125,
            "callBS": true,
            "playerTrialScore": 6,
            "oppTrialScore": -1,
            "playerTotalScore": 88,
            "oppTotalScore": 112,
            "waitTime": 2294.2520649503895,
            "responseTime": 6092,
            "catchQuestion": "How many red marbles did your opponent report drawing?",
            "catchKey": -1,
            "catchResponse": -1,
            "catchResponseTime": -1,
            "pseudoRound": false,
            "trialTime": 12126
        },
        {
            "exptPart": "trial",
            "trialNumber": 36,
            "roleCurrent": "bullshitDetector",
            "marblesSampled": 10,
            "probabilityRed": 0.5,
            "drawnRed": 4,
            "reportedDrawn": 5,
            "compLie": 5,
            "compUnifLie": false,
            "compDetect": -1,
            "callBS": true,
            "playerTrialScore": 5,
            "oppTrialScore": -5,
            "playerTotalScore": 93,
            "oppTotalScore": 107,
            "waitTime": 5483.441555974176,
            "responseTime": 2372,
            "catchQuestion": "How many red marbles did your opponent report drawing?",
            "catchKey": 5,
            "catchResponse": 5,
            "catchResponseTime": 2789,
            "pseudoRound": false,
            "trialTime": 12774
        },
        {
            "exptPart": "trial",
            "trialNumber": 37,
            "roleCurrent": "bullshitter",
            "marblesSampled": 10,
            "probabilityRed": 0.5,
            "drawnRed": 6,
            "reportedDrawn": 5,
            "compLie": -1,
            "compUnifLie": false,
            "compDetect": 0.5,
            "callBS": true,
            "playerTrialScore": -5,
            "oppTrialScore": 5,
            "playerTotalScore": 88,
            "oppTotalScore": 112,
            "waitTime": 2649.3635477507178,
            "responseTime": 2585,
            "catchQuestion": "How many red marbles did your opponent report drawing?",
            "catchKey": -1,
            "catchResponse": -1,
            "catchResponseTime": -1,
            "pseudoRound": false,
            "trialTime": 9049
        },
        {
            "exptPart": "trial",
            "trialNumber": 38,
            "roleCurrent": "bullshitDetector",
            "marblesSampled": 10,
            "probabilityRed": 0.5,
            "drawnRed": 6,
            "reportedDrawn": 6,
            "compLie": 5,
            "compUnifLie": false,
            "compDetect": -1,
            "callBS": false,
            "playerTrialScore": 4,
            "oppTrialScore": 6,
            "playerTotalScore": 92,
            "oppTotalScore": 118,
            "waitTime": 6053.502194144254,
            "responseTime": 5805,
            "catchQuestion": "How many red marbles did your opponent report drawing?",
            "catchKey": -1,
            "catchResponse": -1,
            "catchResponseTime": -1,
            "pseudoRound": false,
            "trialTime": 13158
        },
        {
            "exptPart": "trial",
            "trialNumber": 39,
            "roleCurrent": "bullshitter",
            "marblesSampled": 10,
            "probabilityRed": 0.5,
            "drawnRed": 6,
            "reportedDrawn": 6,
            "compLie": -1,
            "compUnifLie": false,
            "compDetect": 0.705078125,
            "callBS": true,
            "playerTrialScore": 6,
            "oppTrialScore": -1,
            "playerTotalScore": 98,
            "oppTotalScore": 117,
            "waitTime": 2935.636862177932,
            "responseTime": 3112,
            "catchQuestion": "How many red marbles did your opponent report drawing?",
            "catchKey": -1,
            "catchResponse": -1,
            "catchResponseTime": -1,
            "pseudoRound": false,
            "trialTime": 9611
        },
        {
            "exptPart": "trial",
            "trialNumber": 40,
            "roleCurrent": "bullshitDetector",
            "marblesSampled": 10,
            "probabilityRed": 0.5,
            "drawnRed": 6,
            "reportedDrawn": 5,
            "compLie": -1,
            "compUnifLie": false,
            "compDetect": 0.705078125,
            "callBS": true,
            "playerTrialScore": 5,
            "oppTrialScore": -5,
            "playerTotalScore": 103,
            "oppTotalScore": 112,
            "waitTime": 5500.9595713365925,
            "responseTime": 1690,
            "catchQuestion": "How many red marbles did your opponent report drawing?",
            "catchKey": -1,
            "catchResponse": -1,
            "catchResponseTime": -1,
            "pseudoRound": true,
            "trialTime": 9051
        },
        {
            "exptPart": "trial",
            "trialNumber": 41,
            "roleCurrent": "bullshitter",
            "marblesSampled": 10,
            "probabilityRed": 0.5,
            "drawnRed": 5,
            "reportedDrawn": 5,
            "compLie": -1,
            "compUnifLie": false,
            "compDetect": 0.5,
            "callBS": true,
            "playerTrialScore": 5,
            "oppTrialScore": 0,
            "playerTotalScore": 108,
            "oppTotalScore": 112,
            "waitTime": 2973.8266927342197,
            "responseTime": 2576,
            "catchQuestion": "How many red marbles did you actually draw?",
            "catchKey": 5,
            "catchResponse": 5,
            "catchResponseTime": 2480,
            "pseudoRound": false,
            "trialTime": 12500
        },
        {
            "exptPart": "trial",
            "trialNumber": 42,
            "roleCurrent": "bullshitDetector",
            "marblesSampled": 10,
            "probabilityRed": 0.5,
            "drawnRed": 3,
            "reportedDrawn": 0,
            "compLie": -1,
            "compUnifLie": true,
            "compDetect": 0.5,
            "callBS": true,
            "playerTrialScore": 5,
            "oppTrialScore": -5,
            "playerTotalScore": 113,
            "oppTotalScore": 107,
            "waitTime": 7267.592212594856,
            "responseTime": 11196,
            "catchQuestion": "How many red marbles did you actually draw?",
            "catchKey": -1,
            "catchResponse": -1,
            "catchResponseTime": -1,
            "pseudoRound": false,
            "trialTime": 19997
        },
        {
            "exptPart": "trial",
            "trialNumber": 43,
            "roleCurrent": "bullshitter",
            "marblesSampled": 10,
            "probabilityRed": 0.5,
            "drawnRed": 4,
            "reportedDrawn": 4,
            "compLie": -1,
            "compUnifLie": false,
            "compDetect": 0.25390625,
            "callBS": false,
            "playerTrialScore": 4,
            "oppTrialScore": 6,
            "playerTotalScore": 117,
            "oppTotalScore": 113,
            "waitTime": 2718.773361444948,
            "responseTime": 4555,
            "catchQuestion": "How many red marbles did you actually draw?",
            "catchKey": -1,
            "catchResponse": -1,
            "catchResponseTime": -1,
            "pseudoRound": false,
            "trialTime": 10934
        },
        {
            "exptPart": "trial",
            "trialNumber": 44,
            "roleCurrent": "bullshitDetector",
            "marblesSampled": 10,
            "probabilityRed": 0.5,
            "drawnRed": 8,
            "reportedDrawn": 10,
            "compLie": -1,
            "compUnifLie": true,
            "compDetect": 0.25390625,
            "callBS": false,
            "playerTrialScore": 0,
            "oppTrialScore": 10,
            "playerTotalScore": 117,
            "oppTotalScore": 123,
            "waitTime": 6656.7146443531765,
            "responseTime": 8817,
            "catchQuestion": "How many red marbles did you actually draw?",
            "catchKey": -1,
            "catchResponse": -1,
            "catchResponseTime": -1,
            "pseudoRound": false,
            "trialTime": 16854
        },
        {
            "exptPart": "trial",
            "trialNumber": 45,
            "roleCurrent": "bullshitter",
            "marblesSampled": 10,
            "probabilityRed": 0.5,
            "drawnRed": 5,
            "reportedDrawn": 7,
            "compLie": -1,
            "compUnifLie": false,
            "compDetect": 0.822265625,
            "callBS": true,
            "playerTrialScore": -5,
            "oppTrialScore": 5,
            "playerTotalScore": 112,
            "oppTotalScore": 128,
            "waitTime": 2656.6717995394865,
            "responseTime": 2991,
            "catchQuestion": "How many red marbles did you actually draw?",
            "catchKey": -1,
            "catchResponse": -1,
            "catchResponseTime": -1,
            "pseudoRound": false,
            "trialTime": 10102
        },
        {
            "exptPart": "trial",
            "trialNumber": 46,
            "roleCurrent": "bullshitDetector",
            "marblesSampled": 10,
            "probabilityRed": 0.5,
            "drawnRed": 3,
            "reportedDrawn": 7,
            "compLie": -1,
            "compUnifLie": false,
            "compDetect": 0.822265625,
            "callBS": true,
            "playerTrialScore": 5,
            "oppTrialScore": -5,
            "playerTotalScore": 117,
            "oppTotalScore": 123,
            "waitTime": 7402.837956193049,
            "responseTime": 2755,
            "catchQuestion": "How many red marbles did you actually draw?",
            "catchKey": -1,
            "catchResponse": -1,
            "catchResponseTime": -1,
            "pseudoRound": true,
            "trialTime": 11747
        },
        {
            "exptPart": "trial",
            "trialNumber": 47,
            "roleCurrent": "bullshitter",
            "marblesSampled": 10,
            "probabilityRed": 0.5,
            "drawnRed": 7,
            "reportedDrawn": 7,
            "compLie": -1,
            "compUnifLie": false,
            "compDetect": 0.822265625,
            "callBS": true,
            "playerTrialScore": 7,
            "oppTrialScore": -2,
            "playerTotalScore": 124,
            "oppTotalScore": 121,
            "waitTime": 2427.7520625995717,
            "responseTime": 2279,
            "catchQuestion": "How many red marbles did you actually draw?",
            "catchKey": -1,
            "catchResponse": -1,
            "catchResponseTime": -1,
            "pseudoRound": false,
            "trialTime": 9087
        },
        {
            "exptPart": "trial",
            "trialNumber": 48,
            "roleCurrent": "bullshitDetector",
            "marblesSampled": 10,
            "probabilityRed": 0.5,
            "drawnRed": 5,
            "reportedDrawn": 5,
            "compLie": 5,
            "compUnifLie": false,
            "compDetect": -1,
            "callBS": false,
            "playerTrialScore": 5,
            "oppTrialScore": 5,
            "playerTotalScore": 129,
            "oppTotalScore": 126,
            "waitTime": 5391.904490089202,
            "responseTime": 1730,
            "catchQuestion": "How many red marbles did you actually draw?",
            "catchKey": -1,
            "catchResponse": -1,
            "catchResponseTime": -1,
            "pseudoRound": false,
            "trialTime": 8222
        },
        {
            "exptPart": "trial",
            "trialNumber": 49,
            "roleCurrent": "bullshitter",
            "marblesSampled": 10,
            "probabilityRed": 0.5,
            "drawnRed": 5,
            "reportedDrawn": 5,
            "compLie": -1,
            "compUnifLie": false,
            "compDetect": 0.5,
            "callBS": true,
            "playerTrialScore": 5,
            "oppTrialScore": 0,
            "playerTotalScore": 134,
            "oppTotalScore": 126,
            "waitTime": 2709.2940361126043,
            "responseTime": 5668,
            "catchQuestion": "How many red marbles did you actually draw?",
            "catchKey": -1,
            "catchResponse": -1,
            "catchResponseTime": -1,
            "pseudoRound": false,
            "trialTime": 13251
        },
        {
            "exptPart": "trial",
            "trialNumber": 50,
            "roleCurrent": "bullshitDetector",
            "marblesSampled": 10,
            "probabilityRed": 0.5,
            "drawnRed": 7,
            "reportedDrawn": 10,
            "compLie": -1,
            "compUnifLie": false,
            "compDetect": 0.5,
            "callBS": false,
            "playerTrialScore": 0,
            "oppTrialScore": 10,
            "playerTotalScore": 134,
            "oppTotalScore": 136,
            "waitTime": 6553.81838020917,
            "responseTime": 5276,
            "catchQuestion": "How many red marbles did you actually draw?",
            "catchKey": -1,
            "catchResponse": -1,
            "catchResponseTime": -1,
            "pseudoRound": true,
            "trialTime": 14313
        },
        {
            "exptPart": "trial",
            "trialNumber": 51,
            "roleCurrent": "bullshitter",
            "marblesSampled": 10,
            "probabilityRed": 0.5,
            "drawnRed": 5,
            "reportedDrawn": 5,
            "compLie": -1,
            "compUnifLie": false,
            "compDetect": 0.5,
            "callBS": false,
            "playerTrialScore": 5,
            "oppTrialScore": 5,
            "playerTotalScore": 139,
            "oppTotalScore": 141,
            "waitTime": 2558.3280568986434,
            "responseTime": 2396,
            "catchQuestion": "How many red marbles did you actually draw?",
            "catchKey": 5,
            "catchResponse": 5,
            "catchResponseTime": 2505,
            "pseudoRound": false,
            "trialTime": 11226
        },
        {
            "exptPart": "trial",
            "trialNumber": 52,
            "roleCurrent": "bullshitDetector",
            "marblesSampled": 10,
            "probabilityRed": 0.5,
            "drawnRed": 7,
            "reportedDrawn": 7,
            "compLie": 6,
            "compUnifLie": false,
            "compDetect": -1,
            "callBS": false,
            "playerTrialScore": 3,
            "oppTrialScore": 7,
            "playerTotalScore": 142,
            "oppTotalScore": 148,
            "waitTime": 6315.212299056955,
            "responseTime": 2232,
            "catchQuestion": "How many red marbles did you actually draw?",
            "catchKey": -1,
            "catchResponse": -1,
            "catchResponseTime": -1,
            "pseudoRound": false,
            "trialTime": 9855
        },
        {
            "exptPart": "trial",
            "trialNumber": 53,
            "roleCurrent": "bullshitter",
            "marblesSampled": 10,
            "probabilityRed": 0.5,
            "drawnRed": 6,
            "reportedDrawn": 6,
            "compLie": -1,
            "compUnifLie": false,
            "compDetect": 0.705078125,
            "callBS": false,
            "playerTrialScore": 6,
            "oppTrialScore": 4,
            "playerTotalScore": 148,
            "oppTotalScore": 152,
            "waitTime": 2391.195975831499,
            "responseTime": 2252,
            "catchQuestion": "How many red marbles did you actually draw?",
            "catchKey": -1,
            "catchResponse": -1,
            "catchResponseTime": -1,
            "pseudoRound": false,
            "trialTime": 8507
        },
        {
            "exptPart": "trial",
            "trialNumber": 54,
            "roleCurrent": "bullshitDetector",
            "marblesSampled": 10,
            "probabilityRed": 0.5,
            "drawnRed": 4,
            "reportedDrawn": 4,
            "compLie": -1,
            "compUnifLie": true,
            "compDetect": 0.705078125,
            "callBS": true,
            "playerTrialScore": 1,
            "oppTrialScore": 4,
            "playerTotalScore": 149,
            "oppTotalScore": 156,
            "waitTime": 6192.595759787342,
            "responseTime": 1843,
            "catchQuestion": "How many red marbles did you actually draw?",
            "catchKey": -1,
            "catchResponse": -1,
            "catchResponseTime": -1,
            "pseudoRound": false,
            "trialTime": 9531
        },
        {
            "exptPart": "trial",
            "trialNumber": 55,
            "roleCurrent": "bullshitter",
            "marblesSampled": 10,
            "probabilityRed": 0.5,
            "drawnRed": 3,
            "reportedDrawn": 3,
            "compLie": -1,
            "compUnifLie": false,
            "compDetect": 0.048828125,
            "callBS": false,
            "playerTrialScore": 3,
            "oppTrialScore": 7,
            "playerTotalScore": 152,
            "oppTotalScore": 163,
            "waitTime": 2074.5537254651663,
            "responseTime": 3354,
            "catchQuestion": "How many red marbles did you actually draw?",
            "catchKey": -1,
            "catchResponse": -1,
            "catchResponseTime": -1,
            "pseudoRound": false,
            "trialTime": 9160
        },
        {
            "exptPart": "trial",
            "trialNumber": 56,
            "roleCurrent": "bullshitDetector",
            "marblesSampled": 10,
            "probabilityRed": 0.5,
            "drawnRed": 7,
            "reportedDrawn": 7,
            "compLie": 5,
            "compUnifLie": false,
            "compDetect": -1,
            "callBS": true,
            "playerTrialScore": -2,
            "oppTrialScore": 7,
            "playerTotalScore": 150,
            "oppTotalScore": 170,
            "waitTime": 5267.0859694706905,
            "responseTime": 1900,
            "catchQuestion": "How many red marbles did you actually draw?",
            "catchKey": -1,
            "catchResponse": -1,
            "catchResponseTime": -1,
            "pseudoRound": false,
            "trialTime": 8201
        },
        {
            "exptPart": "trial",
            "trialNumber": 57,
            "roleCurrent": "bullshitter",
            "marblesSampled": 10,
            "probabilityRed": 0.5,
            "drawnRed": 3,
            "reportedDrawn": 5,
            "compLie": -1,
            "compUnifLie": false,
            "compDetect": 0.5,
            "callBS": false,
            "playerTrialScore": 5,
            "oppTrialScore": 5,
            "playerTotalScore": 155,
            "oppTotalScore": 175,
            "waitTime": 2608.31187131332,
            "responseTime": 2396,
            "catchQuestion": "How many red marbles did you actually draw?",
            "catchKey": -1,
            "catchResponse": -1,
            "catchResponseTime": -1,
            "pseudoRound": false,
            "trialTime": 10031
        },
        {
            "exptPart": "trial",
            "trialNumber": 58,
            "roleCurrent": "bullshitDetector",
            "marblesSampled": 10,
            "probabilityRed": 0.5,
            "drawnRed": 6,
            "reportedDrawn": 6,
            "compLie": 5,
            "compUnifLie": false,
            "compDetect": -1,
            "callBS": false,
            "playerTrialScore": 4,
            "oppTrialScore": 6,
            "playerTotalScore": 159,
            "oppTotalScore": 181,
            "waitTime": 5262.54295845329,
            "responseTime": 1668,
            "catchQuestion": "How many red marbles did you actually draw?",
            "catchKey": -1,
            "catchResponse": -1,
            "catchResponseTime": -1,
            "pseudoRound": false,
            "trialTime": 8329
        },
        {
            "exptPart": "trial",
            "trialNumber": 59,
            "roleCurrent": "bullshitter",
            "marblesSampled": 10,
            "probabilityRed": 0.5,
            "drawnRed": 1,
            "reportedDrawn": 1,
            "compLie": -1,
            "compUnifLie": false,
            "compDetect": -0.1123046875,
            "callBS": false,
            "playerTrialScore": 1,
            "oppTrialScore": 9,
            "playerTotalScore": 160,
            "oppTotalScore": 190,
            "waitTime": 3004.2925120302975,
            "responseTime": 2869,
            "catchQuestion": "How many red marbles did you actually draw?",
            "catchKey": -1,
            "catchResponse": -1,
            "catchResponseTime": -1,
            "pseudoRound": false,
            "trialTime": 9098
        },
        {
            "exptPart": "trial",
            "trialNumber": 60,
            "roleCurrent": "bullshitDetector",
            "marblesSampled": 10,
            "probabilityRed": 0.5,
            "drawnRed": 7,
            "reportedDrawn": 1,
            "compLie": -1,
            "compUnifLie": false,
            "compDetect": -0.1123046875,
            "callBS": false,
            "playerTrialScore": 9,
            "oppTrialScore": 1,
            "playerTotalScore": 169,
            "oppTotalScore": 191,
            "waitTime": 5131.88269966776,
            "responseTime": 11335,
            "catchQuestion": "How many red marbles did you actually draw?",
            "catchKey": -1,
            "catchResponse": -1,
            "catchResponseTime": -1,
            "pseudoRound": true,
            "trialTime": 18544
        },
        {
            "exptPart": "trial",
            "trialNumber": 61,
            "roleCurrent": "bullshitter",
            "marblesSampled": 10,
            "probabilityRed": 0.5,
            "drawnRed": 6,
            "reportedDrawn": 6,
            "compLie": -1,
            "compUnifLie": false,
            "compDetect": 0.705078125,
            "callBS": true,
            "playerTrialScore": 6,
            "oppTrialScore": -1,
            "playerTotalScore": 175,
            "oppTotalScore": 190,
            "waitTime": 2551.046398524738,
            "responseTime": 3031,
            "catchQuestion": "How many red marbles did you actually draw?",
            "catchKey": 6,
            "catchResponse": 6,
            "catchResponseTime": 3445,
            "pseudoRound": false,
            "trialTime": 13299
        },
        {
            "exptPart": "trial",
            "trialNumber": 62,
            "roleCurrent": "bullshitDetector",
            "marblesSampled": 10,
            "probabilityRed": 0.5,
            "drawnRed": 1,
            "reportedDrawn": 6,
            "compLie": 6,
            "compUnifLie": false,
            "compDetect": -1,
            "callBS": true,
            "playerTrialScore": 5,
            "oppTrialScore": -5,
            "playerTotalScore": 180,
            "oppTotalScore": 185,
            "waitTime": 6611.737475596017,
            "responseTime": 30426,
            "catchQuestion": "How many red marbles did you actually draw?",
            "catchKey": -1,
            "catchResponse": -1,
            "catchResponseTime": -1,
            "pseudoRound": false,
            "trialTime": 38426
        },
        {
            "exptPart": "trial",
            "trialNumber": 63,
            "roleCurrent": "bullshitter",
            "marblesSampled": 10,
            "probabilityRed": 0.5,
            "drawnRed": 9,
            "reportedDrawn": 9,
            "compLie": -1,
            "compUnifLie": false,
            "compDetect": 0.8759765625,
            "callBS": true,
            "playerTrialScore": 9,
            "oppTrialScore": -4,
            "playerTotalScore": 189,
            "oppTotalScore": 181,
            "waitTime": 2460.7906249551324,
            "responseTime": 7033,
            "catchQuestion": "How many red marbles did you actually draw?",
            "catchKey": -1,
            "catchResponse": -1,
            "catchResponseTime": -1,
            "pseudoRound": true,
            "trialTime": 13087
        },
        {
            "exptPart": "trial",
            "trialNumber": 64,
            "roleCurrent": "bullshitDetector",
            "marblesSampled": 10,
            "probabilityRed": 0.5,
            "drawnRed": 6,
            "reportedDrawn": 6,
            "compLie": 6,
            "compUnifLie": false,
            "compDetect": -1,
            "callBS": false,
            "playerTrialScore": 4,
            "oppTrialScore": 6,
            "playerTotalScore": 193,
            "oppTotalScore": 187,
            "waitTime": 7095.521342178266,
            "responseTime": 17418,
            "catchQuestion": "How many red marbles did you actually draw?",
            "catchKey": -1,
            "catchResponse": -1,
            "catchResponseTime": -1,
            "pseudoRound": false,
            "trialTime": 25822
        },
        {
            "exptPart": "trial",
            "trialNumber": 65,
            "roleCurrent": "bullshitter",
            "marblesSampled": 10,
            "probabilityRed": 0.5,
            "drawnRed": 3,
            "reportedDrawn": 3,
            "compLie": -1,
            "compUnifLie": false,
            "compDetect": 0.048828125,
            "callBS": false,
            "playerTrialScore": 3,
            "oppTrialScore": 7,
            "playerTotalScore": 196,
            "oppTotalScore": 194,
            "waitTime": 2828.986386638715,
            "responseTime": 5057,
            "catchQuestion": "How many red marbles did you actually draw?",
            "catchKey": -1,
            "catchResponse": -1,
            "catchResponseTime": -1,
            "pseudoRound": false,
            "trialTime": 13869
        },
        {
            "exptPart": "trial",
            "trialNumber": 66,
            "roleCurrent": "bullshitDetector",
            "marblesSampled": 10,
            "probabilityRed": 0.5,
            "drawnRed": 5,
            "reportedDrawn": 6,
            "compLie": -1,
            "compUnifLie": false,
            "compDetect": 0.048828125,
            "callBS": true,
            "playerTrialScore": 5,
            "oppTrialScore": -5,
            "playerTotalScore": 201,
            "oppTotalScore": 189,
            "waitTime": 5740.058385152799,
            "responseTime": 3936,
            "catchQuestion": "How many red marbles did you actually draw?",
            "catchKey": -1,
            "catchResponse": -1,
            "catchResponseTime": -1,
            "pseudoRound": true,
            "trialTime": 12282
        },
        {
            "exptPart": "trial",
            "trialNumber": 67,
            "roleCurrent": "bullshitter",
            "marblesSampled": 10,
            "probabilityRed": 0.5,
            "drawnRed": 0,
            "reportedDrawn": 0,
            "compLie": -1,
            "compUnifLie": false,
            "compDetect": -0.1220703125,
            "callBS": false,
            "playerTrialScore": 0,
            "oppTrialScore": 10,
            "playerTotalScore": 201,
            "oppTotalScore": 199,
            "waitTime": 2414.7867511819613,
            "responseTime": 4070,
            "catchQuestion": "How many red marbles did you actually draw?",
            "catchKey": -1,
            "catchResponse": -1,
            "catchResponseTime": -1,
            "pseudoRound": true,
            "trialTime": 9799
        },
        {
            "exptPart": "trial",
            "trialNumber": 68,
            "roleCurrent": "bullshitDetector",
            "marblesSampled": 10,
            "probabilityRed": 0.5,
            "drawnRed": 5,
            "reportedDrawn": 3,
            "compLie": -1,
            "compUnifLie": true,
            "compDetect": -0.1220703125,
            "callBS": false,
            "playerTrialScore": 7,
            "oppTrialScore": 3,
            "playerTotalScore": 208,
            "oppTotalScore": 202,
            "waitTime": 6860.433715971274,
            "responseTime": 9250,
            "catchQuestion": "How many red marbles did you actually draw?",
            "catchKey": -1,
            "catchResponse": -1,
            "catchResponseTime": -1,
            "pseudoRound": false,
            "trialTime": 17686
        },
        {
            "exptPart": "trial",
            "trialNumber": 69,
            "roleCurrent": "bullshitter",
            "marblesSampled": 10,
            "probabilityRed": 0.5,
            "drawnRed": 3,
            "reportedDrawn": 5,
            "compLie": -1,
            "compUnifLie": false,
            "compDetect": 0.5,
            "callBS": false,
            "playerTrialScore": 5,
            "oppTrialScore": 5,
            "playerTotalScore": 213,
            "oppTotalScore": 207,
            "waitTime": 2536.873475116123,
            "responseTime": 4097,
            "catchQuestion": "How many red marbles did you actually draw?",
            "catchKey": -1,
            "catchResponse": -1,
            "catchResponseTime": -1,
            "pseudoRound": true,
            "trialTime": 10163
        },
        {
            "exptPart": "trial",
            "trialNumber": 70,
            "roleCurrent": "bullshitDetector",
            "marblesSampled": 10,
            "probabilityRed": 0.5,
            "drawnRed": 5,
            "reportedDrawn": 3,
            "compLie": -1,
            "compUnifLie": false,
            "compDetect": 0.5,
            "callBS": true,
            "playerTrialScore": 5,
            "oppTrialScore": -5,
            "playerTotalScore": 218,
            "oppTotalScore": 202,
            "waitTime": 7192.284647124163,
            "responseTime": 12963,
            "catchQuestion": "How many red marbles did you actually draw?",
            "catchKey": -1,
            "catchResponse": -1,
            "catchResponseTime": -1,
            "pseudoRound": true,
            "trialTime": 22366
        },
        {
            "exptPart": "trial",
            "trialNumber": 71,
            "roleCurrent": "bullshitter",
            "marblesSampled": 10,
            "probabilityRed": 0.5,
            "drawnRed": 7,
            "reportedDrawn": 7,
            "compLie": -1,
            "compUnifLie": false,
            "compDetect": 0.822265625,
            "callBS": true,
            "playerTrialScore": 7,
            "oppTrialScore": -2,
            "playerTotalScore": 225,
            "oppTotalScore": 200,
            "waitTime": 2097.9056067728197,
            "responseTime": 3129,
            "catchQuestion": "How many red marbles did you actually draw?",
            "catchKey": -1,
            "catchResponse": -1,
            "catchResponseTime": -1,
            "pseudoRound": false,
            "trialTime": 9972
        },
        {
            "exptPart": "trial",
            "trialNumber": 72,
            "roleCurrent": "bullshitDetector",
            "marblesSampled": 10,
            "probabilityRed": 0.5,
            "drawnRed": 6,
            "reportedDrawn": 9,
            "compLie": -1,
            "compUnifLie": false,
            "compDetect": 0.822265625,
            "callBS": true,
            "playerTrialScore": 5,
            "oppTrialScore": -5,
            "playerTotalScore": 230,
            "oppTotalScore": 195,
            "waitTime": 5977.361587919856,
            "responseTime": 3121,
            "catchQuestion": "How many red marbles did you actually draw?",
            "catchKey": -1,
            "catchResponse": -1,
            "catchResponseTime": -1,
            "pseudoRound": true,
            "trialTime": 10584
        },
        {
            "exptPart": "trial",
            "trialNumber": 73,
            "roleCurrent": "bullshitter",
            "marblesSampled": 10,
            "probabilityRed": 0.5,
            "drawnRed": 3,
            "reportedDrawn": 5,
            "compLie": -1,
            "compUnifLie": false,
            "compDetect": 0.5,
            "callBS": true,
            "playerTrialScore": -5,
            "oppTrialScore": 5,
            "playerTotalScore": 225,
            "oppTotalScore": 200,
            "waitTime": 3100.131211010407,
            "responseTime": 2860,
            "catchQuestion": "How many red marbles did you actually draw?",
            "catchKey": -1,
            "catchResponse": -1,
            "catchResponseTime": -1,
            "pseudoRound": false,
            "trialTime": 9456
        },
        {
            "exptPart": "trial",
            "trialNumber": 74,
            "roleCurrent": "bullshitDetector",
            "marblesSampled": 10,
            "probabilityRed": 0.5,
            "drawnRed": 5,
            "reportedDrawn": 7,
            "compLie": 7,
            "compUnifLie": false,
            "compDetect": -1,
            "callBS": false,
            "playerTrialScore": 3,
            "oppTrialScore": 7,
            "playerTotalScore": 228,
            "oppTotalScore": 207,
            "waitTime": 7461.351861921409,
            "responseTime": 2653,
            "catchQuestion": "How many red marbles did you actually draw?",
            "catchKey": -1,
            "catchResponse": -1,
            "catchResponseTime": -1,
            "pseudoRound": false,
            "trialTime": 12119
        },
        {
            "exptPart": "trial",
            "trialNumber": 75,
            "roleCurrent": "bullshitter",
            "marblesSampled": 10,
            "probabilityRed": 0.5,
            "drawnRed": 5,
            "reportedDrawn": 5,
            "compLie": -1,
            "compUnifLie": false,
            "compDetect": 0.5,
            "callBS": false,
            "playerTrialScore": 5,
            "oppTrialScore": 5,
            "playerTotalScore": 233,
            "oppTotalScore": 212,
            "waitTime": 2714.256493196661,
            "responseTime": 2871,
            "catchQuestion": "How many red marbles did you actually draw?",
            "catchKey": 5,
            "catchResponse": 5,
            "catchResponseTime": 2582,
            "pseudoRound": false,
            "trialTime": 12738
        },
        {
            "exptPart": "trial",
            "trialNumber": 76,
            "roleCurrent": "bullshitDetector",
            "marblesSampled": 10,
            "probabilityRed": 0.5,
            "drawnRed": 5,
            "reportedDrawn": 5,
            "compLie": 5,
            "compUnifLie": false,
            "compDetect": -1,
            "callBS": false,
            "playerTrialScore": 5,
            "oppTrialScore": 5,
            "playerTotalScore": 238,
            "oppTotalScore": 217,
            "waitTime": 6631.484814110101,
            "responseTime": 7181,
            "catchQuestion": "How many red marbles did you actually draw?",
            "catchKey": -1,
            "catchResponse": -1,
            "catchResponseTime": -1,
            "pseudoRound": false,
            "trialTime": 17530
        },
        {
            "exptPart": "trial",
            "trialNumber": 77,
            "roleCurrent": "bullshitter",
            "marblesSampled": 10,
            "probabilityRed": 0.5,
            "drawnRed": 10,
            "reportedDrawn": 10,
            "compLie": -1,
            "compUnifLie": false,
            "compDetect": 0.876953125,
            "callBS": true,
            "playerTrialScore": 10,
            "oppTrialScore": -5,
            "playerTotalScore": 248,
            "oppTotalScore": 212,
            "waitTime": 2843.869234079132,
            "responseTime": 3445,
            "catchQuestion": "How many red marbles did you actually draw?",
            "catchKey": -1,
            "catchResponse": -1,
            "catchResponseTime": -1,
            "pseudoRound": true,
            "trialTime": 10578
        },
        {
            "exptPart": "trial",
            "trialNumber": 78,
            "roleCurrent": "bullshitDetector",
            "marblesSampled": 10,
            "probabilityRed": 0.5,
            "drawnRed": 7,
            "reportedDrawn": 7,
            "compLie": 3,
            "compUnifLie": false,
            "compDetect": -1,
            "callBS": true,
            "playerTrialScore": -2,
            "oppTrialScore": 7,
            "playerTotalScore": 246,
            "oppTotalScore": 219,
            "waitTime": 5783.647236237829,
            "responseTime": 1969,
            "catchQuestion": "How many red marbles did you actually draw?",
            "catchKey": -1,
            "catchResponse": -1,
            "catchResponseTime": -1,
            "pseudoRound": false,
            "trialTime": 8908
        },
        {
            "exptPart": "trial",
            "trialNumber": 79,
            "roleCurrent": "bullshitter",
            "marblesSampled": 10,
            "probabilityRed": 0.5,
            "drawnRed": 4,
            "reportedDrawn": 4,
            "compLie": -1,
            "compUnifLie": false,
            "compDetect": 0.25390625,
            "callBS": false,
            "playerTrialScore": 4,
            "oppTrialScore": 6,
            "playerTotalScore": 250,
            "oppTotalScore": 225,
            "waitTime": 2336.6864164864837,
            "responseTime": 2383,
            "catchQuestion": "How many red marbles did you actually draw?",
            "catchKey": -1,
            "catchResponse": -1,
            "catchResponseTime": -1,
            "pseudoRound": false,
            "trialTime": 8379
        },
        {
            "exptPart": "trial",
            "trialNumber": 80,
            "roleCurrent": "bullshitDetector",
            "marblesSampled": 10,
            "probabilityRed": 0.5,
            "drawnRed": 9,
            "reportedDrawn": 9,
            "compLie": -1,
            "compUnifLie": true,
            "compDetect": 0.25390625,
            "callBS": true,
            "playerTrialScore": -4,
            "oppTrialScore": 9,
            "playerTotalScore": 246,
            "oppTotalScore": 234,
            "waitTime": 5822.244947663165,
            "responseTime": 2853,
            "catchQuestion": "How many red marbles did you actually draw?",
            "catchKey": -1,
            "catchResponse": -1,
            "catchResponseTime": -1,
            "pseudoRound": false,
            "trialTime": 10575
        },
        {
            "exptPart": "trial",
            "trialNumber": 81,
            "roleCurrent": "bullshitter",
            "marblesSampled": 10,
            "probabilityRed": 0.5,
            "drawnRed": 7,
            "reportedDrawn": 7,
            "compLie": -1,
            "compUnifLie": false,
            "compDetect": 0.822265625,
            "callBS": true,
            "playerTrialScore": 7,
            "oppTrialScore": -2,
            "playerTotalScore": 253,
            "oppTotalScore": 232,
            "waitTime": 2998.609102776677,
            "responseTime": 2246,
            "catchQuestion": "How many red marbles did you actually draw?",
            "catchKey": -1,
            "catchResponse": -1,
            "catchResponseTime": -1,
            "pseudoRound": false,
            "trialTime": 10202
        },
        {
            "exptPart": "trial",
            "trialNumber": 82,
            "roleCurrent": "bullshitDetector",
            "marblesSampled": 10,
            "probabilityRed": 0.5,
            "drawnRed": 4,
            "reportedDrawn": 3,
            "compLie": -1,
            "compUnifLie": true,
            "compDetect": 0.822265625,
            "callBS": true,
            "playerTrialScore": 5,
            "oppTrialScore": -5,
            "playerTotalScore": 258,
            "oppTotalScore": 227,
            "waitTime": 5679.396344771876,
            "responseTime": 4743,
            "catchQuestion": "How many red marbles did you actually draw?",
            "catchKey": -1,
            "catchResponse": -1,
            "catchResponseTime": -1,
            "pseudoRound": false,
            "trialTime": 11559
        },
        {
            "exptPart": "trial",
            "trialNumber": 83,
            "roleCurrent": "bullshitter",
            "marblesSampled": 10,
            "probabilityRed": 0.5,
            "drawnRed": 4,
            "reportedDrawn": 4,
            "compLie": -1,
            "compUnifLie": false,
            "compDetect": 0.25390625,
            "callBS": true,
            "playerTrialScore": 4,
            "oppTrialScore": 1,
            "playerTotalScore": 262,
            "oppTotalScore": 228,
            "waitTime": 2425.678513821592,
            "responseTime": 2360,
            "catchQuestion": "How many red marbles did you actually draw?",
            "catchKey": -1,
            "catchResponse": -1,
            "catchResponseTime": -1,
            "pseudoRound": true,
            "trialTime": 9022
        },
        {
            "exptPart": "trial",
            "trialNumber": 84,
            "roleCurrent": "bullshitDetector",
            "marblesSampled": 10,
            "probabilityRed": 0.5,
            "drawnRed": 5,
            "reportedDrawn": 5,
            "compLie": 4,
            "compUnifLie": false,
            "compDetect": -1,
            "callBS": false,
            "playerTrialScore": 5,
            "oppTrialScore": 5,
            "playerTotalScore": 267,
            "oppTotalScore": 233,
            "waitTime": 6140.801442723836,
            "responseTime": 1819,
            "catchQuestion": "How many red marbles did your opponent report drawing?",
            "catchKey": 5,
            "catchResponse": 5,
            "catchResponseTime": 2417,
            "pseudoRound": false,
            "trialTime": 11744
        },
        {
            "exptPart": "trial",
            "trialNumber": 85,
            "roleCurrent": "bullshitter",
            "marblesSampled": 10,
            "probabilityRed": 0.5,
            "drawnRed": 6,
            "reportedDrawn": 6,
            "compLie": -1,
            "compUnifLie": false,
            "compDetect": 0.705078125,
            "callBS": false,
            "playerTrialScore": 6,
            "oppTrialScore": 4,
            "playerTotalScore": 273,
            "oppTotalScore": 237,
            "waitTime": 3004.5205567604407,
            "responseTime": 2603,
            "catchQuestion": "How many red marbles did your opponent report drawing?",
            "catchKey": -1,
            "catchResponse": -1,
            "catchResponseTime": -1,
            "pseudoRound": false,
            "trialTime": 10908
        },
        {
            "exptPart": "trial",
            "trialNumber": 86,
            "roleCurrent": "bullshitDetector",
            "marblesSampled": 10,
            "probabilityRed": 0.5,
            "drawnRed": 3,
            "reportedDrawn": 4,
            "compLie": 4,
            "compUnifLie": false,
            "compDetect": -1,
            "callBS": false,
            "playerTrialScore": 6,
            "oppTrialScore": 4,
            "playerTotalScore": 279,
            "oppTotalScore": 241,
            "waitTime": 6847.188726912969,
            "responseTime": 7777,
            "catchQuestion": "How many red marbles did your opponent report drawing?",
            "catchKey": -1,
            "catchResponse": -1,
            "catchResponseTime": -1,
            "pseudoRound": false,
            "trialTime": 15919
        },
        {
            "exptPart": "trial",
            "trialNumber": 87,
            "roleCurrent": "bullshitter",
            "marblesSampled": 10,
            "probabilityRed": 0.5,
            "drawnRed": 3,
            "reportedDrawn": 3,
            "compLie": -1,
            "compUnifLie": false,
            "compDetect": 0.048828125,
            "callBS": false,
            "playerTrialScore": 3,
            "oppTrialScore": 7,
            "playerTotalScore": 282,
            "oppTotalScore": 248,
            "waitTime": 2275.160379554765,
            "responseTime": 3306,
            "catchQuestion": "How many red marbles did your opponent report drawing?",
            "catchKey": -1,
            "catchResponse": -1,
            "catchResponseTime": -1,
            "pseudoRound": false,
            "trialTime": 9772
        },
        {
            "exptPart": "trial",
            "trialNumber": 88,
            "roleCurrent": "bullshitDetector",
            "marblesSampled": 10,
            "probabilityRed": 0.5,
            "drawnRed": 4,
            "reportedDrawn": 5,
            "compLie": 5,
            "compUnifLie": false,
            "compDetect": -1,
            "callBS": false,
            "playerTrialScore": 5,
            "oppTrialScore": 5,
            "playerTotalScore": 287,
            "oppTotalScore": 253,
            "waitTime": 5455.273673717378,
            "responseTime": 1536,
            "catchQuestion": "How many red marbles did your opponent report drawing?",
            "catchKey": -1,
            "catchResponse": -1,
            "catchResponseTime": -1,
            "pseudoRound": false,
            "trialTime": 8548
        },
        {
            "exptPart": "trial",
            "trialNumber": 89,
            "roleCurrent": "bullshitter",
            "marblesSampled": 10,
            "probabilityRed": 0.5,
            "drawnRed": 5,
            "reportedDrawn": 5,
            "compLie": -1,
            "compUnifLie": false,
            "compDetect": 0.5,
            "callBS": false,
            "playerTrialScore": 5,
            "oppTrialScore": 5,
            "playerTotalScore": 292,
            "oppTotalScore": 258,
            "waitTime": 3149.1982557177157,
            "responseTime": 2691,
            "catchQuestion": "How many red marbles did your opponent report drawing?",
            "catchKey": -1,
            "catchResponse": -1,
            "catchResponseTime": -1,
            "pseudoRound": false,
            "trialTime": 9931
        },
        {
            "exptPart": "trial",
            "trialNumber": 90,
            "roleCurrent": "bullshitDetector",
            "marblesSampled": 10,
            "probabilityRed": 0.5,
            "drawnRed": 5,
            "reportedDrawn": 8,
            "compLie": -1,
            "compUnifLie": false,
            "compDetect": 0.5,
            "callBS": true,
            "playerTrialScore": 5,
            "oppTrialScore": -5,
            "playerTotalScore": 297,
            "oppTotalScore": 253,
            "waitTime": 5856.378106794609,
            "responseTime": 6735,
            "catchQuestion": "How many red marbles did your opponent report drawing?",
            "catchKey": -1,
            "catchResponse": -1,
            "catchResponseTime": -1,
            "pseudoRound": true,
            "trialTime": 14213
        },
        {
            "exptPart": "trial",
            "trialNumber": 91,
            "roleCurrent": "bullshitter",
            "marblesSampled": 10,
            "probabilityRed": 0.5,
            "drawnRed": 2,
            "reportedDrawn": 2,
            "compLie": -1,
            "compUnifLie": false,
            "compDetect": -0.068359375,
            "callBS": false,
            "playerTrialScore": 2,
            "oppTrialScore": 8,
            "playerTotalScore": 299,
            "oppTotalScore": 261,
            "waitTime": 2225.4026702790566,
            "responseTime": 2091,
            "catchQuestion": "How many red marbles did your opponent report drawing?",
            "catchKey": -1,
            "catchResponse": -1,
            "catchResponseTime": -1,
            "pseudoRound": true,
            "trialTime": 10328
        },
        {
            "exptPart": "trial",
            "trialNumber": 92,
            "roleCurrent": "bullshitDetector",
            "marblesSampled": 10,
            "probabilityRed": 0.5,
            "drawnRed": 8,
            "reportedDrawn": 8,
            "compLie": 7,
            "compUnifLie": false,
            "compDetect": -1,
            "callBS": false,
            "playerTrialScore": 2,
            "oppTrialScore": 8,
            "playerTotalScore": 301,
            "oppTotalScore": 269,
            "waitTime": 5605.6354074608535,
            "responseTime": 2669,
            "catchQuestion": "How many red marbles did your opponent report drawing?",
            "catchKey": -1,
            "catchResponse": -1,
            "catchResponseTime": -1,
            "pseudoRound": false,
            "trialTime": 10861
        },
        {
            "exptPart": "trial",
            "trialNumber": 93,
            "roleCurrent": "bullshitter",
            "marblesSampled": 10,
            "probabilityRed": 0.5,
            "drawnRed": 8,
            "reportedDrawn": 8,
            "compLie": -1,
            "compUnifLie": false,
            "compDetect": 0.8662109375,
            "callBS": true,
            "playerTrialScore": 8,
            "oppTrialScore": -3,
            "playerTotalScore": 309,
            "oppTotalScore": 266,
            "waitTime": 2984.587850903799,
            "responseTime": 2430,
            "catchQuestion": "How many red marbles did your opponent report drawing?",
            "catchKey": -1,
            "catchResponse": -1,
            "catchResponseTime": -1,
            "pseudoRound": true,
            "trialTime": 9599
        },
        {
            "exptPart": "trial",
            "trialNumber": 94,
            "roleCurrent": "bullshitDetector",
            "marblesSampled": 10,
            "probabilityRed": 0.5,
            "drawnRed": 5,
            "reportedDrawn": 6,
            "compLie": 6,
            "compUnifLie": false,
            "compDetect": -1,
            "callBS": true,
            "playerTrialScore": 5,
            "oppTrialScore": -5,
            "playerTotalScore": 314,
            "oppTotalScore": 261,
            "waitTime": 5515.119704027813,
            "responseTime": 1968,
            "catchQuestion": "How many red marbles did your opponent report drawing?",
            "catchKey": -1,
            "catchResponse": -1,
            "catchResponseTime": -1,
            "pseudoRound": false,
            "trialTime": 8911
        },
        {
            "exptPart": "trial",
            "trialNumber": 95,
            "roleCurrent": "bullshitter",
            "marblesSampled": 10,
            "probabilityRed": 0.5,
            "drawnRed": 5,
            "reportedDrawn": 5,
            "compLie": -1,
            "compUnifLie": false,
            "compDetect": 0.5,
            "callBS": true,
            "playerTrialScore": 5,
            "oppTrialScore": 0,
            "playerTotalScore": 319,
            "oppTotalScore": 261,
            "waitTime": 3069.9322352032864,
            "responseTime": 2748,
            "catchQuestion": "How many red marbles did your opponent report drawing?",
            "catchKey": -1,
            "catchResponse": -1,
            "catchResponseTime": -1,
            "pseudoRound": true,
            "trialTime": 12069
        },
        {
            "exptPart": "trial",
            "trialNumber": 96,
            "roleCurrent": "bullshitDetector",
            "marblesSampled": 10,
            "probabilityRed": 0.5,
            "drawnRed": 4,
            "reportedDrawn": 4,
            "compLie": 3,
            "compUnifLie": false,
            "compDetect": -1,
            "callBS": true,
            "playerTrialScore": 1,
            "oppTrialScore": 4,
            "playerTotalScore": 320,
            "oppTotalScore": 265,
            "waitTime": 5319.225755321085,
            "responseTime": 7575,
            "catchQuestion": "How many red marbles did your opponent report drawing?",
            "catchKey": 4,
            "catchResponse": 4,
            "catchResponseTime": 3169,
            "pseudoRound": false,
            "trialTime": 17602
        },
        {
            "exptPart": "trial",
            "trialNumber": 97,
            "roleCurrent": "bullshitter",
            "marblesSampled": 10,
            "probabilityRed": 0.5,
            "drawnRed": 5,
            "reportedDrawn": 5,
            "compLie": -1,
            "compUnifLie": false,
            "compDetect": 0.5,
            "callBS": true,
            "playerTrialScore": 5,
            "oppTrialScore": 0,
            "playerTotalScore": 325,
            "oppTotalScore": 265,
            "waitTime": 2816.393286562009,
            "responseTime": 2261,
            "catchQuestion": "How many red marbles did your opponent report drawing?",
            "catchKey": -1,
            "catchResponse": -1,
            "catchResponseTime": -1,
            "pseudoRound": false,
            "trialTime": 8875
        },
        {
            "exptPart": "trial",
            "trialNumber": 98,
            "roleCurrent": "bullshitDetector",
            "marblesSampled": 10,
            "probabilityRed": 0.5,
            "drawnRed": 3,
            "reportedDrawn": 7,
            "compLie": 7,
            "compUnifLie": false,
            "compDetect": -1,
            "callBS": false,
            "playerTrialScore": 3,
            "oppTrialScore": 7,
            "playerTotalScore": 328,
            "oppTotalScore": 272,
            "waitTime": 6853.9502271078545,
            "responseTime": 2705,
            "catchQuestion": "How many red marbles did your opponent report drawing?",
            "catchKey": -1,
            "catchResponse": -1,
            "catchResponseTime": -1,
            "pseudoRound": false,
            "trialTime": 11191
        },
        {
            "exptPart": "trial",
            "trialNumber": 99,
            "roleCurrent": "bullshitter",
            "marblesSampled": 10,
            "probabilityRed": 0.5,
            "drawnRed": 7,
            "reportedDrawn": 7,
            "compLie": -1,
            "compUnifLie": false,
            "compDetect": 0.822265625,
            "callBS": true,
            "playerTrialScore": 7,
            "oppTrialScore": -2,
            "playerTotalScore": 335,
            "oppTotalScore": 270,
            "waitTime": 2235.9504536225754,
            "responseTime": 2211,
            "catchQuestion": "How many red marbles did your opponent report drawing?",
            "catchKey": -1,
            "catchResponse": -1,
            "catchResponseTime": -1,
            "pseudoRound": false,
            "trialTime": 16680
        },
        {
            "exptPart": "trial",
            "trialNumber": 100,
            "roleCurrent": "bullshitDetector",
            "marblesSampled": 10,
            "probabilityRed": 0.5,
            "drawnRed": 6,
            "reportedDrawn": 6,
            "compLie": 5,
            "compUnifLie": false,
            "compDetect": -1,
            "callBS": false,
            "playerTrialScore": 4,
            "oppTrialScore": 6,
            "playerTotalScore": 339,
            "oppTotalScore": 276,
            "waitTime": 7031.321424789705,
            "responseTime": 3782,
            "catchQuestion": "How many red marbles did your opponent report drawing?",
            "catchKey": -1,
            "catchResponse": -1,
            "catchResponseTime": -1,
            "pseudoRound": false,
            "trialTime": 13668
        }
    ]
}