{
    "client": {
        "type": "sona",
        "experiment_id": 1505,
        "credit_token": "b20092f9d3b34a378ee654bcc50710ea",
        "survey_code": "34395",
        "sid": "sona-34395",
        "window": {
            "width": 1440,
            "height": 837
        },
        "screen": {
            "width": 1440,
            "height": 900
        },
        "userAgent": "Mozilla\/5.0 (Macintosh; Intel Mac OS X 10_15_6) AppleWebKit\/605.1.15 (KHTML, like Gecko) Version\/14.0 Safari\/605.1.15",
        "score": 0,
        "bonus": 0
    },
    "expt": {
        "saveURL": "submit.simple.php",
        "trials": 100,
        "practiceTrials": 4,
        "marblesSampled": 10,
        "roles": [
            "bullshitter",
            "bullshitDetector"
        ],
        "roleFirst": "bullshitter",
        "allTrialProbs": [
            0.2,
            0.5,
            0.8
        ],
        "trialProbs": 0.2,
        "catchTrials": [
            1,
            11,
            22,
            34,
            44,
            55,
            69,
            79,
            87,
            97
        ],
        "pseudo": {
            "1": 3,
            "3": 5,
            "7": 0,
            "16": 1,
            "17": 2,
            "21": 10,
            "22": 5,
            "26": 8,
            "28": 2,
            "31": 8,
            "44": 4,
            "46": 0,
            "47": 9,
            "53": 6,
            "58": 9,
            "64": 6,
            "68": 10,
            "71": 4,
            "82": 3,
            "84": 7,
            "87": 7,
            "99": 1
        },
        "stat": {
            "playerTotalScore": 256,
            "oppTotalScore": 279,
            "truth": 13,
            "truth_noBS": 5,
            "truth_BS": 8,
            "lie": 37,
            "lie_noBS": 8,
            "lie_BS": 29,
            "noBS": 34,
            "noBS_truth": 20,
            "noBS_lie": 14,
            "BS": 16,
            "BS_truth": 5,
            "BS_lie": 11
        },
        "sona": {
            "experiment_id": 1505,
            "credit_token": "b20092f9d3b34a378ee654bcc50710ea"
        }
    },
    "trials": [
        {
            "exptPart": "practice",
            "trialNumber": 1,
            "roleCurrent": "bullshitter",
            "marblesSampled": 10,
            "probabilityRed": 0.2,
            "drawnRed": 3,
            "reportedDrawn": 5,
            "compLie": -1,
            "compUnifLie": false,
            "compDetect": 0.8158310912000003,
            "callBS": true,
            "playerTrialScore": -5,
            "oppTrialScore": 5,
            "playerTotalScore": -5,
            "oppTotalScore": 5,
            "waitTime": 2103.294353231972,
            "responseTime": 13440,
            "catchQuestion": "How many red marbles did you actually draw?",
            "catchKey": 3,
            "catchResponse": 3,
            "catchResponseTime": 10990,
            "pseudoRound": false,
            "trialTime": 45290
        },
        {
            "exptPart": "practice",
            "trialNumber": 2,
            "roleCurrent": "bullshitDetector",
            "marblesSampled": 10,
            "probabilityRed": 0.2,
            "drawnRed": 3,
            "reportedDrawn": 0,
            "compLie": -1,
            "compUnifLie": true,
            "compDetect": 0.8158310912000003,
            "callBS": true,
            "playerTrialScore": 5,
            "oppTrialScore": -5,
            "playerTotalScore": 0,
            "oppTotalScore": 0,
            "waitTime": 5434.88543442709,
            "responseTime": 27111,
            "catchQuestion": "How many red marbles did you actually draw?",
            "catchKey": -1,
            "catchResponse": -1,
            "catchResponseTime": -1,
            "pseudoRound": false,
            "trialTime": 38183
        },
        {
            "exptPart": "practice",
            "trialNumber": 3,
            "roleCurrent": "bullshitter",
            "marblesSampled": 10,
            "probabilityRed": 0.2,
            "drawnRed": 2,
            "reportedDrawn": 3,
            "compLie": -1,
            "compUnifLie": false,
            "compDetect": 0.7013265920000002,
            "callBS": false,
            "playerTrialScore": 3,
            "oppTrialScore": 7,
            "playerTotalScore": 3,
            "oppTotalScore": 7,
            "waitTime": 3176.3025637286205,
            "responseTime": 3505,
            "catchQuestion": "How many red marbles did you actually draw?",
            "catchKey": 2,
            "catchResponse": 2,
            "catchResponseTime": 4151,
            "pseudoRound": false,
            "trialTime": 20806
        },
        {
            "exptPart": "practice",
            "trialNumber": 4,
            "roleCurrent": "bullshitDetector",
            "marblesSampled": 10,
            "probabilityRed": 0.2,
            "drawnRed": 2,
            "reportedDrawn": 2,
            "compLie": 1,
            "compUnifLie": false,
            "compDetect": -1,
            "callBS": false,
            "playerTrialScore": 8,
            "oppTrialScore": 2,
            "playerTotalScore": 11,
            "oppTotalScore": 9,
            "waitTime": 5383.656093961461,
            "responseTime": 3655,
            "catchQuestion": "How many red marbles did you actually draw?",
            "catchKey": -1,
            "catchResponse": -1,
            "catchResponseTime": -1,
            "pseudoRound": false,
            "trialTime": 15235
        },
        {
            "exptPart": "trial",
            "trialNumber": 1,
            "roleCurrent": "bullshitter",
            "marblesSampled": 10,
            "probabilityRed": 0.2,
            "drawnRed": 2,
            "reportedDrawn": 4,
            "compLie": -1,
            "compUnifLie": false,
            "compDetect": 0.7894069760000003,
            "callBS": true,
            "playerTrialScore": -5,
            "oppTrialScore": 5,
            "playerTotalScore": -5,
            "oppTotalScore": 5,
            "waitTime": 3063.0247398751144,
            "responseTime": 4315,
            "catchQuestion": "How many red marbles did you actually draw?",
            "catchKey": -1,
            "catchResponse": -1,
            "catchResponseTime": -1,
            "pseudoRound": false,
            "trialTime": 15682
        },
        {
            "exptPart": "trial",
            "trialNumber": 2,
            "roleCurrent": "bullshitDetector",
            "marblesSampled": 10,
            "probabilityRed": 0.2,
            "drawnRed": 3,
            "reportedDrawn": 3,
            "compLie": -1,
            "compUnifLie": false,
            "compDetect": 0.7894069760000003,
            "callBS": false,
            "playerTrialScore": 7,
            "oppTrialScore": 3,
            "playerTotalScore": 2,
            "oppTotalScore": 8,
            "waitTime": 6378.6341990026785,
            "responseTime": 8600,
            "catchQuestion": "How many red marbles did your opponent report drawing?",
            "catchKey": 3,
            "catchResponse": 3,
            "catchResponseTime": 5845,
            "pseudoRound": true,
            "trialTime": 22875
        },
        {
            "exptPart": "trial",
            "trialNumber": 3,
            "roleCurrent": "bullshitter",
            "marblesSampled": 10,
            "probabilityRed": 0.2,
            "drawnRed": 2,
            "reportedDrawn": 5,
            "compLie": -1,
            "compUnifLie": false,
            "compDetect": 0.8158310912000003,
            "callBS": true,
            "playerTrialScore": -5,
            "oppTrialScore": 5,
            "playerTotalScore": -3,
            "oppTotalScore": 13,
            "waitTime": 2304.9935380745774,
            "responseTime": 5326,
            "catchQuestion": "How many red marbles did your opponent report drawing?",
            "catchKey": -1,
            "catchResponse": -1,
            "catchResponseTime": -1,
            "pseudoRound": false,
            "trialTime": 14722
        },
        {
            "exptPart": "trial",
            "trialNumber": 4,
            "roleCurrent": "bullshitDetector",
            "marblesSampled": 10,
            "probabilityRed": 0.2,
            "drawnRed": 1,
            "reportedDrawn": 5,
            "compLie": -1,
            "compUnifLie": false,
            "compDetect": 0.8158310912000003,
            "callBS": true,
            "playerTrialScore": 5,
            "oppTrialScore": -5,
            "playerTotalScore": 2,
            "oppTotalScore": 8,
            "waitTime": 5974.942900631136,
            "responseTime": 2863,
            "catchQuestion": "How many red marbles did your opponent report drawing?",
            "catchKey": -1,
            "catchResponse": -1,
            "catchResponseTime": -1,
            "pseudoRound": true,
            "trialTime": 11194
        },
        {
            "exptPart": "trial",
            "trialNumber": 5,
            "roleCurrent": "bullshitter",
            "marblesSampled": 10,
            "probabilityRed": 0.2,
            "drawnRed": 2,
            "reportedDrawn": 2,
            "compLie": -1,
            "compUnifLie": false,
            "compDetect": 0.5,
            "callBS": true,
            "playerTrialScore": 2,
            "oppTrialScore": 3,
            "playerTotalScore": 4,
            "oppTotalScore": 11,
            "waitTime": 2856.443384919192,
            "responseTime": 5112,
            "catchQuestion": "How many red marbles did your opponent report drawing?",
            "catchKey": -1,
            "catchResponse": -1,
            "catchResponseTime": -1,
            "pseudoRound": false,
            "trialTime": 16943
        },
        {
            "exptPart": "trial",
            "trialNumber": 6,
            "roleCurrent": "bullshitDetector",
            "marblesSampled": 10,
            "probabilityRed": 0.2,
            "drawnRed": 3,
            "reportedDrawn": 3,
            "compLie": 2,
            "compUnifLie": false,
            "compDetect": -1,
            "callBS": false,
            "playerTrialScore": 7,
            "oppTrialScore": 3,
            "playerTotalScore": 11,
            "oppTotalScore": 14,
            "waitTime": 5319.746373615678,
            "responseTime": 3599,
            "catchQuestion": "How many red marbles did your opponent report drawing?",
            "catchKey": -1,
            "catchResponse": -1,
            "catchResponseTime": -1,
            "pseudoRound": false,
            "trialTime": 11048
        },
        {
            "exptPart": "trial",
            "trialNumber": 7,
            "roleCurrent": "bullshitter",
            "marblesSampled": 10,
            "probabilityRed": 0.2,
            "drawnRed": 1,
            "reportedDrawn": 0,
            "compLie": -1,
            "compUnifLie": false,
            "compDetect": -0.07042534400000063,
            "callBS": false,
            "playerTrialScore": 0,
            "oppTrialScore": 10,
            "playerTotalScore": 11,
            "oppTotalScore": 24,
            "waitTime": 2154.7831266968196,
            "responseTime": 5531,
            "catchQuestion": "How many red marbles did your opponent report drawing?",
            "catchKey": -1,
            "catchResponse": -1,
            "catchResponseTime": -1,
            "pseudoRound": false,
            "trialTime": 13057
        },
        {
            "exptPart": "trial",
            "trialNumber": 8,
            "roleCurrent": "bullshitDetector",
            "marblesSampled": 10,
            "probabilityRed": 0.2,
            "drawnRed": 1,
            "reportedDrawn": 0,
            "compLie": -1,
            "compUnifLie": false,
            "compDetect": -0.07042534400000063,
            "callBS": true,
            "playerTrialScore": 5,
            "oppTrialScore": -5,
            "playerTotalScore": 16,
            "oppTotalScore": 19,
            "waitTime": 5540.755761711424,
            "responseTime": 5045,
            "catchQuestion": "How many red marbles did your opponent report drawing?",
            "catchKey": -1,
            "catchResponse": -1,
            "catchResponseTime": -1,
            "pseudoRound": true,
            "trialTime": 12761
        },
        {
            "exptPart": "trial",
            "trialNumber": 9,
            "roleCurrent": "bullshitter",
            "marblesSampled": 10,
            "probabilityRed": 0.2,
            "drawnRed": 3,
            "reportedDrawn": 4,
            "compLie": -1,
            "compUnifLie": false,
            "compDetect": 0.7894069760000003,
            "callBS": true,
            "playerTrialScore": -5,
            "oppTrialScore": 5,
            "playerTotalScore": 11,
            "oppTotalScore": 24,
            "waitTime": 3094.587223324985,
            "responseTime": 4409,
            "catchQuestion": "How many red marbles did your opponent report drawing?",
            "catchKey": -1,
            "catchResponse": -1,
            "catchResponseTime": -1,
            "pseudoRound": false,
            "trialTime": 12449
        },
        {
            "exptPart": "trial",
            "trialNumber": 10,
            "roleCurrent": "bullshitDetector",
            "marblesSampled": 10,
            "probabilityRed": 0.2,
            "drawnRed": 3,
            "reportedDrawn": 3,
            "compLie": 0,
            "compUnifLie": false,
            "compDetect": -1,
            "callBS": false,
            "playerTrialScore": 7,
            "oppTrialScore": 3,
            "playerTotalScore": 18,
            "oppTotalScore": 27,
            "waitTime": 5347.378537505496,
            "responseTime": 6481,
            "catchQuestion": "How many red marbles did your opponent report drawing?",
            "catchKey": -1,
            "catchResponse": -1,
            "catchResponseTime": -1,
            "pseudoRound": false,
            "trialTime": 14391
        },
        {
            "exptPart": "trial",
            "trialNumber": 11,
            "roleCurrent": "bullshitter",
            "marblesSampled": 10,
            "probabilityRed": 0.2,
            "drawnRed": 1,
            "reportedDrawn": 2,
            "compLie": -1,
            "compUnifLie": false,
            "compDetect": 0.5,
            "callBS": true,
            "playerTrialScore": -5,
            "oppTrialScore": 5,
            "playerTotalScore": 13,
            "oppTotalScore": 32,
            "waitTime": 2270.2969545859387,
            "responseTime": 3563,
            "catchQuestion": "How many red marbles did your opponent report drawing?",
            "catchKey": -1,
            "catchResponse": -1,
            "catchResponseTime": -1,
            "pseudoRound": false,
            "trialTime": 11220
        },
        {
            "exptPart": "trial",
            "trialNumber": 12,
            "roleCurrent": "bullshitDetector",
            "marblesSampled": 10,
            "probabilityRed": 0.2,
            "drawnRed": 1,
            "reportedDrawn": 2,
            "compLie": 2,
            "compUnifLie": false,
            "compDetect": -1,
            "callBS": false,
            "playerTrialScore": 8,
            "oppTrialScore": 2,
            "playerTotalScore": 21,
            "oppTotalScore": 34,
            "waitTime": 6704.2520333096945,
            "responseTime": 5483,
            "catchQuestion": "How many red marbles did your opponent report drawing?",
            "catchKey": 2,
            "catchResponse": 2,
            "catchResponseTime": 4202,
            "pseudoRound": false,
            "trialTime": 18646
        },
        {
            "exptPart": "trial",
            "trialNumber": 13,
            "roleCurrent": "bullshitter",
            "marblesSampled": 10,
            "probabilityRed": 0.2,
            "drawnRed": 1,
            "reportedDrawn": 4,
            "compLie": -1,
            "compUnifLie": false,
            "compDetect": 0.7894069760000003,
            "callBS": false,
            "playerTrialScore": 4,
            "oppTrialScore": 6,
            "playerTotalScore": 25,
            "oppTotalScore": 40,
            "waitTime": 2702.0892184309487,
            "responseTime": 3413,
            "catchQuestion": "How many red marbles did your opponent report drawing?",
            "catchKey": -1,
            "catchResponse": -1,
            "catchResponseTime": -1,
            "pseudoRound": false,
            "trialTime": 22297
        },
        {
            "exptPart": "trial",
            "trialNumber": 14,
            "roleCurrent": "bullshitDetector",
            "marblesSampled": 10,
            "probabilityRed": 0.2,
            "drawnRed": 2,
            "reportedDrawn": 2,
            "compLie": 1,
            "compUnifLie": false,
            "compDetect": -1,
            "callBS": false,
            "playerTrialScore": 8,
            "oppTrialScore": 2,
            "playerTotalScore": 33,
            "oppTotalScore": 42,
            "waitTime": 5809.8856378668315,
            "responseTime": 3904,
            "catchQuestion": "How many red marbles did your opponent report drawing?",
            "catchKey": -1,
            "catchResponse": -1,
            "catchResponseTime": -1,
            "pseudoRound": false,
            "trialTime": 13034
        },
        {
            "exptPart": "trial",
            "trialNumber": 15,
            "roleCurrent": "bullshitter",
            "marblesSampled": 10,
            "probabilityRed": 0.2,
            "drawnRed": 2,
            "reportedDrawn": 3,
            "compLie": -1,
            "compUnifLie": false,
            "compDetect": 0.7013265920000002,
            "callBS": true,
            "playerTrialScore": -5,
            "oppTrialScore": 5,
            "playerTotalScore": 28,
            "oppTotalScore": 47,
            "waitTime": 3217.544155137866,
            "responseTime": 3899,
            "catchQuestion": "How many red marbles did your opponent report drawing?",
            "catchKey": -1,
            "catchResponse": -1,
            "catchResponseTime": -1,
            "pseudoRound": false,
            "trialTime": 12527
        },
        {
            "exptPart": "trial",
            "trialNumber": 16,
            "roleCurrent": "bullshitDetector",
            "marblesSampled": 10,
            "probabilityRed": 0.2,
            "drawnRed": 2,
            "reportedDrawn": 2,
            "compLie": 2,
            "compUnifLie": false,
            "compDetect": -1,
            "callBS": false,
            "playerTrialScore": 8,
            "oppTrialScore": 2,
            "playerTotalScore": 36,
            "oppTotalScore": 49,
            "waitTime": 5874.886573972796,
            "responseTime": 2314,
            "catchQuestion": "How many red marbles did your opponent report drawing?",
            "catchKey": -1,
            "catchResponse": -1,
            "catchResponseTime": -1,
            "pseudoRound": false,
            "trialTime": 10008
        },
        {
            "exptPart": "trial",
            "trialNumber": 17,
            "roleCurrent": "bullshitter",
            "marblesSampled": 10,
            "probabilityRed": 0.2,
            "drawnRed": 1,
            "reportedDrawn": 2,
            "compLie": -1,
            "compUnifLie": false,
            "compDetect": 0.5,
            "callBS": true,
            "playerTrialScore": -5,
            "oppTrialScore": 5,
            "playerTotalScore": 31,
            "oppTotalScore": 54,
            "waitTime": 3122.2562599075536,
            "responseTime": 3714,
            "catchQuestion": "How many red marbles did your opponent report drawing?",
            "catchKey": -1,
            "catchResponse": -1,
            "catchResponseTime": -1,
            "pseudoRound": true,
            "trialTime": 12119
        },
        {
            "exptPart": "trial",
            "trialNumber": 18,
            "roleCurrent": "bullshitDetector",
            "marblesSampled": 10,
            "probabilityRed": 0.2,
            "drawnRed": 4,
            "reportedDrawn": 2,
            "compLie": -1,
            "compUnifLie": false,
            "compDetect": 0.5,
            "callBS": false,
            "playerTrialScore": 8,
            "oppTrialScore": 2,
            "playerTotalScore": 39,
            "oppTotalScore": 56,
            "waitTime": 5140.428191919292,
            "responseTime": 2238,
            "catchQuestion": "How many red marbles did your opponent report drawing?",
            "catchKey": -1,
            "catchResponse": -1,
            "catchResponseTime": -1,
            "pseudoRound": true,
            "trialTime": 9951
        },
        {
            "exptPart": "trial",
            "trialNumber": 19,
            "roleCurrent": "bullshitter",
            "marblesSampled": 10,
            "probabilityRed": 0.2,
            "drawnRed": 0,
            "reportedDrawn": 2,
            "compLie": -1,
            "compUnifLie": false,
            "compDetect": 0.5,
            "callBS": false,
            "playerTrialScore": 2,
            "oppTrialScore": 8,
            "playerTotalScore": 41,
            "oppTotalScore": 64,
            "waitTime": 2117.9197900360477,
            "responseTime": 5879,
            "catchQuestion": "How many red marbles did your opponent report drawing?",
            "catchKey": -1,
            "catchResponse": -1,
            "catchResponseTime": -1,
            "pseudoRound": false,
            "trialTime": 14830
        },
        {
            "exptPart": "trial",
            "trialNumber": 20,
            "roleCurrent": "bullshitDetector",
            "marblesSampled": 10,
            "probabilityRed": 0.2,
            "drawnRed": 0,
            "reportedDrawn": 1,
            "compLie": 1,
            "compUnifLie": false,
            "compDetect": -1,
            "callBS": true,
            "playerTrialScore": 5,
            "oppTrialScore": -5,
            "playerTotalScore": 46,
            "oppTotalScore": 59,
            "waitTime": 5663.87383567836,
            "responseTime": 2977,
            "catchQuestion": "How many red marbles did your opponent report drawing?",
            "catchKey": -1,
            "catchResponse": -1,
            "catchResponseTime": -1,
            "pseudoRound": false,
            "trialTime": 10720
        },
        {
            "exptPart": "trial",
            "trialNumber": 21,
            "roleCurrent": "bullshitter",
            "marblesSampled": 10,
            "probabilityRed": 0.2,
            "drawnRed": 0,
            "reportedDrawn": 7,
            "compLie": -1,
            "compUnifLie": false,
            "compDetect": 0.8221225472000002,
            "callBS": true,
            "playerTrialScore": -5,
            "oppTrialScore": 5,
            "playerTotalScore": 41,
            "oppTotalScore": 64,
            "waitTime": 2633.08286151873,
            "responseTime": 11522,
            "catchQuestion": "How many red marbles did your opponent report drawing?",
            "catchKey": -1,
            "catchResponse": -1,
            "catchResponseTime": -1,
            "pseudoRound": false,
            "trialTime": 20249
        },
        {
            "exptPart": "trial",
            "trialNumber": 22,
            "roleCurrent": "bullshitDetector",
            "marblesSampled": 10,
            "probabilityRed": 0.2,
            "drawnRed": 3,
            "reportedDrawn": 10,
            "compLie": -1,
            "compUnifLie": false,
            "compDetect": 0.8221225472000002,
            "callBS": true,
            "playerTrialScore": 5,
            "oppTrialScore": -5,
            "playerTotalScore": 46,
            "oppTotalScore": 59,
            "waitTime": 6386.133886204649,
            "responseTime": 2535,
            "catchQuestion": "How many red marbles did your opponent report drawing?",
            "catchKey": -1,
            "catchResponse": -1,
            "catchResponseTime": -1,
            "pseudoRound": true,
            "trialTime": 11146
        },
        {
            "exptPart": "trial",
            "trialNumber": 23,
            "roleCurrent": "bullshitter",
            "marblesSampled": 10,
            "probabilityRed": 0.2,
            "drawnRed": 5,
            "reportedDrawn": 4,
            "compLie": -1,
            "compUnifLie": false,
            "compDetect": 0.7894069760000003,
            "callBS": true,
            "playerTrialScore": -5,
            "oppTrialScore": 5,
            "playerTotalScore": 41,
            "oppTotalScore": 64,
            "waitTime": 2156.178879485188,
            "responseTime": 6328,
            "catchQuestion": "How many red marbles did you actually draw?",
            "catchKey": 5,
            "catchResponse": 5,
            "catchResponseTime": 4953,
            "pseudoRound": true,
            "trialTime": 18955
        },
        {
            "exptPart": "trial",
            "trialNumber": 24,
            "roleCurrent": "bullshitDetector",
            "marblesSampled": 10,
            "probabilityRed": 0.2,
            "drawnRed": 0,
            "reportedDrawn": 3,
            "compLie": 3,
            "compUnifLie": false,
            "compDetect": -1,
            "callBS": false,
            "playerTrialScore": 7,
            "oppTrialScore": 3,
            "playerTotalScore": 48,
            "oppTotalScore": 67,
            "waitTime": 5297.276354551715,
            "responseTime": 2225,
            "catchQuestion": "How many red marbles did you actually draw?",
            "catchKey": -1,
            "catchResponse": -1,
            "catchResponseTime": -1,
            "pseudoRound": false,
            "trialTime": 9436
        },
        {
            "exptPart": "trial",
            "trialNumber": 25,
            "roleCurrent": "bullshitter",
            "marblesSampled": 10,
            "probabilityRed": 0.2,
            "drawnRed": 2,
            "reportedDrawn": 6,
            "compLie": -1,
            "compUnifLie": false,
            "compDetect": 0.8213361152000003,
            "callBS": true,
            "playerTrialScore": -5,
            "oppTrialScore": 5,
            "playerTotalScore": 43,
            "oppTotalScore": 72,
            "waitTime": 2942.7537826506295,
            "responseTime": 4503,
            "catchQuestion": "How many red marbles did you actually draw?",
            "catchKey": -1,
            "catchResponse": -1,
            "catchResponseTime": -1,
            "pseudoRound": false,
            "trialTime": 12617
        },
        {
            "exptPart": "trial",
            "trialNumber": 26,
            "roleCurrent": "bullshitDetector",
            "marblesSampled": 10,
            "probabilityRed": 0.2,
            "drawnRed": 2,
            "reportedDrawn": 2,
            "compLie": 2,
            "compUnifLie": false,
            "compDetect": -1,
            "callBS": false,
            "playerTrialScore": 8,
            "oppTrialScore": 2,
            "playerTotalScore": 51,
            "oppTotalScore": 74,
            "waitTime": 7127.650515430376,
            "responseTime": 10515,
            "catchQuestion": "How many red marbles did you actually draw?",
            "catchKey": -1,
            "catchResponse": -1,
            "catchResponseTime": -1,
            "pseudoRound": false,
            "trialTime": 21413
        },
        {
            "exptPart": "trial",
            "trialNumber": 27,
            "roleCurrent": "bullshitter",
            "marblesSampled": 10,
            "probabilityRed": 0.2,
            "drawnRed": 8,
            "reportedDrawn": 8,
            "compLie": -1,
            "compUnifLie": false,
            "compDetect": 0.8221962752000003,
            "callBS": true,
            "playerTrialScore": 8,
            "oppTrialScore": -3,
            "playerTotalScore": 59,
            "oppTotalScore": 71,
            "waitTime": 2727.7649328442067,
            "responseTime": 5179,
            "catchQuestion": "How many red marbles did you actually draw?",
            "catchKey": -1,
            "catchResponse": -1,
            "catchResponseTime": -1,
            "pseudoRound": true,
            "trialTime": 18580
        },
        {
            "exptPart": "trial",
            "trialNumber": 28,
            "roleCurrent": "bullshitDetector",
            "marblesSampled": 10,
            "probabilityRed": 0.2,
            "drawnRed": 1,
            "reportedDrawn": 2,
            "compLie": 2,
            "compUnifLie": false,
            "compDetect": -1,
            "callBS": false,
            "playerTrialScore": 8,
            "oppTrialScore": 2,
            "playerTotalScore": 67,
            "oppTotalScore": 73,
            "waitTime": 5470.418691020006,
            "responseTime": 4518,
            "catchQuestion": "How many red marbles did you actually draw?",
            "catchKey": -1,
            "catchResponse": -1,
            "catchResponseTime": -1,
            "pseudoRound": false,
            "trialTime": 12334
        },
        {
            "exptPart": "trial",
            "trialNumber": 29,
            "roleCurrent": "bullshitter",
            "marblesSampled": 10,
            "probabilityRed": 0.2,
            "drawnRed": 2,
            "reportedDrawn": 5,
            "compLie": -1,
            "compUnifLie": false,
            "compDetect": 0.8158310912000003,
            "callBS": true,
            "playerTrialScore": -5,
            "oppTrialScore": 5,
            "playerTotalScore": 62,
            "oppTotalScore": 78,
            "waitTime": 2415.3140652327556,
            "responseTime": 3373,
            "catchQuestion": "How many red marbles did you actually draw?",
            "catchKey": -1,
            "catchResponse": -1,
            "catchResponseTime": -1,
            "pseudoRound": true,
            "trialTime": 11112
        },
        {
            "exptPart": "trial",
            "trialNumber": 30,
            "roleCurrent": "bullshitDetector",
            "marblesSampled": 10,
            "probabilityRed": 0.2,
            "drawnRed": 1,
            "reportedDrawn": 0,
            "compLie": -1,
            "compUnifLie": true,
            "compDetect": 0.8158310912000003,
            "callBS": true,
            "playerTrialScore": 5,
            "oppTrialScore": -5,
            "playerTotalScore": 67,
            "oppTotalScore": 73,
            "waitTime": 6906.305104958046,
            "responseTime": 2849,
            "catchQuestion": "How many red marbles did you actually draw?",
            "catchKey": -1,
            "catchResponse": -1,
            "catchResponseTime": -1,
            "pseudoRound": false,
            "trialTime": 12214
        },
        {
            "exptPart": "trial",
            "trialNumber": 31,
            "roleCurrent": "bullshitter",
            "marblesSampled": 10,
            "probabilityRed": 0.2,
            "drawnRed": 2,
            "reportedDrawn": 4,
            "compLie": -1,
            "compUnifLie": false,
            "compDetect": 0.7894069760000003,
            "callBS": false,
            "playerTrialScore": 4,
            "oppTrialScore": 6,
            "playerTotalScore": 71,
            "oppTotalScore": 79,
            "waitTime": 2302.361864124693,
            "responseTime": 3462,
            "catchQuestion": "How many red marbles did you actually draw?",
            "catchKey": -1,
            "catchResponse": -1,
            "catchResponseTime": -1,
            "pseudoRound": false,
            "trialTime": 13410
        },
        {
            "exptPart": "trial",
            "trialNumber": 32,
            "roleCurrent": "bullshitDetector",
            "marblesSampled": 10,
            "probabilityRed": 0.2,
            "drawnRed": 1,
            "reportedDrawn": 8,
            "compLie": -1,
            "compUnifLie": false,
            "compDetect": 0.7894069760000003,
            "callBS": true,
            "playerTrialScore": 5,
            "oppTrialScore": -5,
            "playerTotalScore": 76,
            "oppTotalScore": 74,
            "waitTime": 5421.439200918558,
            "responseTime": 6706,
            "catchQuestion": "How many red marbles did you actually draw?",
            "catchKey": -1,
            "catchResponse": -1,
            "catchResponseTime": -1,
            "pseudoRound": true,
            "trialTime": 13914
        },
        {
            "exptPart": "trial",
            "trialNumber": 33,
            "roleCurrent": "bullshitter",
            "marblesSampled": 10,
            "probabilityRed": 0.2,
            "drawnRed": 1,
            "reportedDrawn": 9,
            "compLie": -1,
            "compUnifLie": false,
            "compDetect": 0.8222003712000002,
            "callBS": true,
            "playerTrialScore": -5,
            "oppTrialScore": 5,
            "playerTotalScore": 71,
            "oppTotalScore": 79,
            "waitTime": 2384.71495566076,
            "responseTime": 6291,
            "catchQuestion": "How many red marbles did you actually draw?",
            "catchKey": -1,
            "catchResponse": -1,
            "catchResponseTime": -1,
            "pseudoRound": false,
            "trialTime": 13152
        },
        {
            "exptPart": "trial",
            "trialNumber": 34,
            "roleCurrent": "bullshitDetector",
            "marblesSampled": 10,
            "probabilityRed": 0.2,
            "drawnRed": 2,
            "reportedDrawn": 2,
            "compLie": 2,
            "compUnifLie": false,
            "compDetect": -1,
            "callBS": false,
            "playerTrialScore": 8,
            "oppTrialScore": 2,
            "playerTotalScore": 79,
            "oppTotalScore": 81,
            "waitTime": 5565.26891033738,
            "responseTime": 10068,
            "catchQuestion": "How many red marbles did you actually draw?",
            "catchKey": -1,
            "catchResponse": -1,
            "catchResponseTime": -1,
            "pseudoRound": false,
            "trialTime": 18361
        },
        {
            "exptPart": "trial",
            "trialNumber": 35,
            "roleCurrent": "bullshitter",
            "marblesSampled": 10,
            "probabilityRed": 0.2,
            "drawnRed": 3,
            "reportedDrawn": 4,
            "compLie": -1,
            "compUnifLie": false,
            "compDetect": 0.7894069760000003,
            "callBS": true,
            "playerTrialScore": -5,
            "oppTrialScore": 5,
            "playerTotalScore": 74,
            "oppTotalScore": 86,
            "waitTime": 2967.347466409509,
            "responseTime": 3752,
            "catchQuestion": "How many red marbles did you actually draw?",
            "catchKey": 3,
            "catchResponse": 3,
            "catchResponseTime": 3209,
            "pseudoRound": false,
            "trialTime": 18820
        },
        {
            "exptPart": "trial",
            "trialNumber": 36,
            "roleCurrent": "bullshitDetector",
            "marblesSampled": 10,
            "probabilityRed": 0.2,
            "drawnRed": 3,
            "reportedDrawn": 3,
            "compLie": 3,
            "compUnifLie": false,
            "compDetect": -1,
            "callBS": false,
            "playerTrialScore": 7,
            "oppTrialScore": 3,
            "playerTotalScore": 81,
            "oppTotalScore": 89,
            "waitTime": 7283.419073154792,
            "responseTime": 2754,
            "catchQuestion": "How many red marbles did you actually draw?",
            "catchKey": -1,
            "catchResponse": -1,
            "catchResponseTime": -1,
            "pseudoRound": false,
            "trialTime": 12425
        },
        {
            "exptPart": "trial",
            "trialNumber": 37,
            "roleCurrent": "bullshitter",
            "marblesSampled": 10,
            "probabilityRed": 0.2,
            "drawnRed": 3,
            "reportedDrawn": 6,
            "compLie": -1,
            "compUnifLie": false,
            "compDetect": 0.8213361152000003,
            "callBS": true,
            "playerTrialScore": -5,
            "oppTrialScore": 5,
            "playerTotalScore": 76,
            "oppTotalScore": 94,
            "waitTime": 2721.2164219435444,
            "responseTime": 4022,
            "catchQuestion": "How many red marbles did you actually draw?",
            "catchKey": -1,
            "catchResponse": -1,
            "catchResponseTime": -1,
            "pseudoRound": false,
            "trialTime": 11395
        },
        {
            "exptPart": "trial",
            "trialNumber": 38,
            "roleCurrent": "bullshitDetector",
            "marblesSampled": 10,
            "probabilityRed": 0.2,
            "drawnRed": 4,
            "reportedDrawn": 6,
            "compLie": -1,
            "compUnifLie": true,
            "compDetect": 0.8213361152000003,
            "callBS": true,
            "playerTrialScore": 5,
            "oppTrialScore": -5,
            "playerTotalScore": 81,
            "oppTotalScore": 89,
            "waitTime": 7191.020928460893,
            "responseTime": 3010,
            "catchQuestion": "How many red marbles did you actually draw?",
            "catchKey": -1,
            "catchResponse": -1,
            "catchResponseTime": -1,
            "pseudoRound": false,
            "trialTime": 12494
        },
        {
            "exptPart": "trial",
            "trialNumber": 39,
            "roleCurrent": "bullshitter",
            "marblesSampled": 10,
            "probabilityRed": 0.2,
            "drawnRed": 1,
            "reportedDrawn": 9,
            "compLie": -1,
            "compUnifLie": false,
            "compDetect": 0.8222003712000002,
            "callBS": true,
            "playerTrialScore": -5,
            "oppTrialScore": 5,
            "playerTotalScore": 76,
            "oppTotalScore": 94,
            "waitTime": 2152.283212509921,
            "responseTime": 3270,
            "catchQuestion": "How many red marbles did you actually draw?",
            "catchKey": -1,
            "catchResponse": -1,
            "catchResponseTime": -1,
            "pseudoRound": false,
            "trialTime": 11659
        },
        {
            "exptPart": "trial",
            "trialNumber": 40,
            "roleCurrent": "bullshitDetector",
            "marblesSampled": 10,
            "probabilityRed": 0.2,
            "drawnRed": 5,
            "reportedDrawn": 5,
            "compLie": 2,
            "compUnifLie": false,
            "compDetect": -1,
            "callBS": false,
            "playerTrialScore": 5,
            "oppTrialScore": 5,
            "playerTotalScore": 81,
            "oppTotalScore": 99,
            "waitTime": 5655.411974481112,
            "responseTime": 3911,
            "catchQuestion": "How many red marbles did you actually draw?",
            "catchKey": -1,
            "catchResponse": -1,
            "catchResponseTime": -1,
            "pseudoRound": false,
            "trialTime": 11851
        },
        {
            "exptPart": "trial",
            "trialNumber": 41,
            "roleCurrent": "bullshitter",
            "marblesSampled": 10,
            "probabilityRed": 0.2,
            "drawnRed": 1,
            "reportedDrawn": 1,
            "compLie": -1,
            "compUnifLie": false,
            "compDetect": 0.19801011199999963,
            "callBS": false,
            "playerTrialScore": 1,
            "oppTrialScore": 9,
            "playerTotalScore": 82,
            "oppTotalScore": 108,
            "waitTime": 2691.0522038850677,
            "responseTime": 4820,
            "catchQuestion": "How many red marbles did you actually draw?",
            "catchKey": -1,
            "catchResponse": -1,
            "catchResponseTime": -1,
            "pseudoRound": false,
            "trialTime": 12779
        },
        {
            "exptPart": "trial",
            "trialNumber": 42,
            "roleCurrent": "bullshitDetector",
            "marblesSampled": 10,
            "probabilityRed": 0.2,
            "drawnRed": 1,
            "reportedDrawn": 1,
            "compLie": 1,
            "compUnifLie": false,
            "compDetect": -1,
            "callBS": true,
            "playerTrialScore": 4,
            "oppTrialScore": 1,
            "playerTotalScore": 86,
            "oppTotalScore": 109,
            "waitTime": 6773.633794116576,
            "responseTime": 3094,
            "catchQuestion": "How many red marbles did you actually draw?",
            "catchKey": -1,
            "catchResponse": -1,
            "catchResponseTime": -1,
            "pseudoRound": false,
            "trialTime": 11914
        },
        {
            "exptPart": "trial",
            "trialNumber": 43,
            "roleCurrent": "bullshitter",
            "marblesSampled": 10,
            "probabilityRed": 0.2,
            "drawnRed": 3,
            "reportedDrawn": 4,
            "compLie": -1,
            "compUnifLie": false,
            "compDetect": 0.7894069760000003,
            "callBS": true,
            "playerTrialScore": -5,
            "oppTrialScore": 5,
            "playerTotalScore": 81,
            "oppTotalScore": 114,
            "waitTime": 2655.0355215235845,
            "responseTime": 3410,
            "catchQuestion": "How many red marbles did you actually draw?",
            "catchKey": -1,
            "catchResponse": -1,
            "catchResponseTime": -1,
            "pseudoRound": false,
            "trialTime": 15467
        },
        {
            "exptPart": "trial",
            "trialNumber": 44,
            "roleCurrent": "bullshitDetector",
            "marblesSampled": 10,
            "probabilityRed": 0.2,
            "drawnRed": 1,
            "reportedDrawn": 10,
            "compLie": -1,
            "compUnifLie": true,
            "compDetect": 0.7894069760000003,
            "callBS": true,
            "playerTrialScore": 5,
            "oppTrialScore": -5,
            "playerTotalScore": 86,
            "oppTotalScore": 109,
            "waitTime": 5389.534749858134,
            "responseTime": 7277,
            "catchQuestion": "How many red marbles did you actually draw?",
            "catchKey": -1,
            "catchResponse": -1,
            "catchResponseTime": -1,
            "pseudoRound": false,
            "trialTime": 14983
        },
        {
            "exptPart": "trial",
            "trialNumber": 45,
            "roleCurrent": "bullshitter",
            "marblesSampled": 10,
            "probabilityRed": 0.2,
            "drawnRed": 4,
            "reportedDrawn": 4,
            "compLie": -1,
            "compUnifLie": false,
            "compDetect": 0.7894069760000003,
            "callBS": false,
            "playerTrialScore": 4,
            "oppTrialScore": 6,
            "playerTotalScore": 90,
            "oppTotalScore": 115,
            "waitTime": 2608.7650406905614,
            "responseTime": 4423,
            "catchQuestion": "How many red marbles did you actually draw?",
            "catchKey": 4,
            "catchResponse": 4,
            "catchResponseTime": 5061,
            "pseudoRound": true,
            "trialTime": 16774
        },
        {
            "exptPart": "trial",
            "trialNumber": 46,
            "roleCurrent": "bullshitDetector",
            "marblesSampled": 10,
            "probabilityRed": 0.2,
            "drawnRed": 0,
            "reportedDrawn": 2,
            "compLie": 2,
            "compUnifLie": false,
            "compDetect": -1,
            "callBS": false,
            "playerTrialScore": 8,
            "oppTrialScore": 2,
            "playerTotalScore": 98,
            "oppTotalScore": 117,
            "waitTime": 7135.14053230186,
            "responseTime": 3267,
            "catchQuestion": "How many red marbles did you actually draw?",
            "catchKey": -1,
            "catchResponse": -1,
            "catchResponseTime": -1,
            "pseudoRound": false,
            "trialTime": 12308
        },
        {
            "exptPart": "trial",
            "trialNumber": 47,
            "roleCurrent": "bullshitter",
            "marblesSampled": 10,
            "probabilityRed": 0.2,
            "drawnRed": 0,
            "reportedDrawn": 10,
            "compLie": -1,
            "compUnifLie": false,
            "compDetect": 0.8222004736000001,
            "callBS": true,
            "playerTrialScore": -5,
            "oppTrialScore": 5,
            "playerTotalScore": 93,
            "oppTotalScore": 122,
            "waitTime": 2854.7019273463657,
            "responseTime": 3572,
            "catchQuestion": "How many red marbles did you actually draw?",
            "catchKey": -1,
            "catchResponse": -1,
            "catchResponseTime": -1,
            "pseudoRound": true,
            "trialTime": 11790
        },
        {
            "exptPart": "trial",
            "trialNumber": 48,
            "roleCurrent": "bullshitDetector",
            "marblesSampled": 10,
            "probabilityRed": 0.2,
            "drawnRed": 5,
            "reportedDrawn": 9,
            "compLie": -1,
            "compUnifLie": false,
            "compDetect": 0.8222004736000001,
            "callBS": true,
            "playerTrialScore": 5,
            "oppTrialScore": -5,
            "playerTotalScore": 98,
            "oppTotalScore": 117,
            "waitTime": 5840.79537111445,
            "responseTime": 2071,
            "catchQuestion": "How many red marbles did you actually draw?",
            "catchKey": -1,
            "catchResponse": -1,
            "catchResponseTime": -1,
            "pseudoRound": true,
            "trialTime": 9944
        },
        {
            "exptPart": "trial",
            "trialNumber": 49,
            "roleCurrent": "bullshitter",
            "marblesSampled": 10,
            "probabilityRed": 0.2,
            "drawnRed": 2,
            "reportedDrawn": 4,
            "compLie": -1,
            "compUnifLie": false,
            "compDetect": 0.7894069760000003,
            "callBS": true,
            "playerTrialScore": -5,
            "oppTrialScore": 5,
            "playerTotalScore": 93,
            "oppTotalScore": 122,
            "waitTime": 2296.13077527671,
            "responseTime": 3603,
            "catchQuestion": "How many red marbles did you actually draw?",
            "catchKey": -1,
            "catchResponse": -1,
            "catchResponseTime": -1,
            "pseudoRound": false,
            "trialTime": 10755
        },
        {
            "exptPart": "trial",
            "trialNumber": 50,
            "roleCurrent": "bullshitDetector",
            "marblesSampled": 10,
            "probabilityRed": 0.2,
            "drawnRed": 2,
            "reportedDrawn": 2,
            "compLie": 1,
            "compUnifLie": false,
            "compDetect": -1,
            "callBS": false,
            "playerTrialScore": 8,
            "oppTrialScore": 2,
            "playerTotalScore": 101,
            "oppTotalScore": 124,
            "waitTime": 6092.625086738217,
            "responseTime": 2059,
            "catchQuestion": "How many red marbles did you actually draw?",
            "catchKey": -1,
            "catchResponse": -1,
            "catchResponseTime": -1,
            "pseudoRound": false,
            "trialTime": 10254
        },
        {
            "exptPart": "trial",
            "trialNumber": 51,
            "roleCurrent": "bullshitter",
            "marblesSampled": 10,
            "probabilityRed": 0.2,
            "drawnRed": 2,
            "reportedDrawn": 5,
            "compLie": -1,
            "compUnifLie": false,
            "compDetect": 0.8158310912000003,
            "callBS": false,
            "playerTrialScore": 5,
            "oppTrialScore": 5,
            "playerTotalScore": 106,
            "oppTotalScore": 129,
            "waitTime": 2387.2048492154163,
            "responseTime": 3509,
            "catchQuestion": "How many red marbles did you actually draw?",
            "catchKey": -1,
            "catchResponse": -1,
            "catchResponseTime": -1,
            "pseudoRound": false,
            "trialTime": 10627
        },
        {
            "exptPart": "trial",
            "trialNumber": 52,
            "roleCurrent": "bullshitDetector",
            "marblesSampled": 10,
            "probabilityRed": 0.2,
            "drawnRed": 4,
            "reportedDrawn": 4,
            "compLie": 4,
            "compUnifLie": false,
            "compDetect": -1,
            "callBS": false,
            "playerTrialScore": 6,
            "oppTrialScore": 4,
            "playerTotalScore": 112,
            "oppTotalScore": 133,
            "waitTime": 6739.411438326638,
            "responseTime": 8871,
            "catchQuestion": "How many red marbles did you actually draw?",
            "catchKey": -1,
            "catchResponse": -1,
            "catchResponseTime": -1,
            "pseudoRound": false,
            "trialTime": 17356
        },
        {
            "exptPart": "trial",
            "trialNumber": 53,
            "roleCurrent": "bullshitter",
            "marblesSampled": 10,
            "probabilityRed": 0.2,
            "drawnRed": 0,
            "reportedDrawn": 4,
            "compLie": -1,
            "compUnifLie": false,
            "compDetect": 0.7894069760000003,
            "callBS": true,
            "playerTrialScore": -5,
            "oppTrialScore": 5,
            "playerTotalScore": 107,
            "oppTotalScore": 138,
            "waitTime": 2563.016398915539,
            "responseTime": 2969,
            "catchQuestion": "How many red marbles did you actually draw?",
            "catchKey": -1,
            "catchResponse": -1,
            "catchResponseTime": -1,
            "pseudoRound": false,
            "trialTime": 58954
        },
        {
            "exptPart": "trial",
            "trialNumber": 54,
            "roleCurrent": "bullshitDetector",
            "marblesSampled": 10,
            "probabilityRed": 0.2,
            "drawnRed": 1,
            "reportedDrawn": 6,
            "compLie": -1,
            "compUnifLie": false,
            "compDetect": 0.7894069760000003,
            "callBS": true,
            "playerTrialScore": 5,
            "oppTrialScore": -5,
            "playerTotalScore": 112,
            "oppTotalScore": 133,
            "waitTime": 5809.741536371338,
            "responseTime": 2569,
            "catchQuestion": "How many red marbles did you actually draw?",
            "catchKey": -1,
            "catchResponse": -1,
            "catchResponseTime": -1,
            "pseudoRound": true,
            "trialTime": 10624
        },
        {
            "exptPart": "trial",
            "trialNumber": 55,
            "roleCurrent": "bullshitter",
            "marblesSampled": 10,
            "probabilityRed": 0.2,
            "drawnRed": 1,
            "reportedDrawn": 4,
            "compLie": -1,
            "compUnifLie": false,
            "compDetect": 0.7894069760000003,
            "callBS": true,
            "playerTrialScore": -5,
            "oppTrialScore": 5,
            "playerTotalScore": 107,
            "oppTotalScore": 138,
            "waitTime": 2871.2243770734217,
            "responseTime": 3762,
            "catchQuestion": "How many red marbles did you actually draw?",
            "catchKey": -1,
            "catchResponse": -1,
            "catchResponseTime": -1,
            "pseudoRound": false,
            "trialTime": 12191
        },
        {
            "exptPart": "trial",
            "trialNumber": 56,
            "roleCurrent": "bullshitDetector",
            "marblesSampled": 10,
            "probabilityRed": 0.2,
            "drawnRed": 1,
            "reportedDrawn": 1,
            "compLie": 1,
            "compUnifLie": false,
            "compDetect": -1,
            "callBS": false,
            "playerTrialScore": 9,
            "oppTrialScore": 1,
            "playerTotalScore": 116,
            "oppTotalScore": 139,
            "waitTime": 7152.75676819368,
            "responseTime": 2449,
            "catchQuestion": "How many red marbles did your opponent report drawing?",
            "catchKey": 1,
            "catchResponse": 1,
            "catchResponseTime": 3888,
            "pseudoRound": false,
            "trialTime": 14945
        },
        {
            "exptPart": "trial",
            "trialNumber": 57,
            "roleCurrent": "bullshitter",
            "marblesSampled": 10,
            "probabilityRed": 0.2,
            "drawnRed": 0,
            "reportedDrawn": 5,
            "compLie": -1,
            "compUnifLie": false,
            "compDetect": 0.8158310912000003,
            "callBS": true,
            "playerTrialScore": -5,
            "oppTrialScore": 5,
            "playerTotalScore": 111,
            "oppTotalScore": 144,
            "waitTime": 3032.3377213320323,
            "responseTime": 4108,
            "catchQuestion": "How many red marbles did your opponent report drawing?",
            "catchKey": -1,
            "catchResponse": -1,
            "catchResponseTime": -1,
            "pseudoRound": false,
            "trialTime": 12525
        },
        {
            "exptPart": "trial",
            "trialNumber": 58,
            "roleCurrent": "bullshitDetector",
            "marblesSampled": 10,
            "probabilityRed": 0.2,
            "drawnRed": 2,
            "reportedDrawn": 2,
            "compLie": 2,
            "compUnifLie": false,
            "compDetect": -1,
            "callBS": false,
            "playerTrialScore": 8,
            "oppTrialScore": 2,
            "playerTotalScore": 119,
            "oppTotalScore": 146,
            "waitTime": 5255.566399750567,
            "responseTime": 1959,
            "catchQuestion": "How many red marbles did your opponent report drawing?",
            "catchKey": -1,
            "catchResponse": -1,
            "catchResponseTime": -1,
            "pseudoRound": false,
            "trialTime": 8969
        },
        {
            "exptPart": "trial",
            "trialNumber": 59,
            "roleCurrent": "bullshitter",
            "marblesSampled": 10,
            "probabilityRed": 0.2,
            "drawnRed": 9,
            "reportedDrawn": 9,
            "compLie": -1,
            "compUnifLie": false,
            "compDetect": 0.8222003712000002,
            "callBS": true,
            "playerTrialScore": 9,
            "oppTrialScore": -4,
            "playerTotalScore": 128,
            "oppTotalScore": 142,
            "waitTime": 2312.4376565956964,
            "responseTime": 3564,
            "catchQuestion": "How many red marbles did your opponent report drawing?",
            "catchKey": -1,
            "catchResponse": -1,
            "catchResponseTime": -1,
            "pseudoRound": true,
            "trialTime": 10450
        },
        {
            "exptPart": "trial",
            "trialNumber": 60,
            "roleCurrent": "bullshitDetector",
            "marblesSampled": 10,
            "probabilityRed": 0.2,
            "drawnRed": 1,
            "reportedDrawn": 1,
            "compLie": 0,
            "compUnifLie": false,
            "compDetect": -1,
            "callBS": true,
            "playerTrialScore": 4,
            "oppTrialScore": 1,
            "playerTotalScore": 132,
            "oppTotalScore": 143,
            "waitTime": 7239.649753238069,
            "responseTime": 13041,
            "catchQuestion": "How many red marbles did your opponent report drawing?",
            "catchKey": -1,
            "catchResponse": -1,
            "catchResponseTime": -1,
            "pseudoRound": false,
            "trialTime": 22633
        },
        {
            "exptPart": "trial",
            "trialNumber": 61,
            "roleCurrent": "bullshitter",
            "marblesSampled": 10,
            "probabilityRed": 0.2,
            "drawnRed": 3,
            "reportedDrawn": 4,
            "compLie": -1,
            "compUnifLie": false,
            "compDetect": 0.7894069760000003,
            "callBS": true,
            "playerTrialScore": -5,
            "oppTrialScore": 5,
            "playerTotalScore": 127,
            "oppTotalScore": 148,
            "waitTime": 2127.9217328243285,
            "responseTime": 3588,
            "catchQuestion": "How many red marbles did your opponent report drawing?",
            "catchKey": -1,
            "catchResponse": -1,
            "catchResponseTime": -1,
            "pseudoRound": false,
            "trialTime": 11051
        },
        {
            "exptPart": "trial",
            "trialNumber": 62,
            "roleCurrent": "bullshitDetector",
            "marblesSampled": 10,
            "probabilityRed": 0.2,
            "drawnRed": 1,
            "reportedDrawn": 1,
            "compLie": 1,
            "compUnifLie": false,
            "compDetect": -1,
            "callBS": true,
            "playerTrialScore": 4,
            "oppTrialScore": 1,
            "playerTotalScore": 131,
            "oppTotalScore": 149,
            "waitTime": 6018.505168040246,
            "responseTime": 4771,
            "catchQuestion": "How many red marbles did your opponent report drawing?",
            "catchKey": -1,
            "catchResponse": -1,
            "catchResponseTime": -1,
            "pseudoRound": false,
            "trialTime": 12908
        },
        {
            "exptPart": "trial",
            "trialNumber": 63,
            "roleCurrent": "bullshitter",
            "marblesSampled": 10,
            "probabilityRed": 0.2,
            "drawnRed": 4,
            "reportedDrawn": 4,
            "compLie": -1,
            "compUnifLie": false,
            "compDetect": 0.7894069760000003,
            "callBS": true,
            "playerTrialScore": 4,
            "oppTrialScore": 1,
            "playerTotalScore": 135,
            "oppTotalScore": 150,
            "waitTime": 2420.973322577774,
            "responseTime": 3257,
            "catchQuestion": "How many red marbles did your opponent report drawing?",
            "catchKey": -1,
            "catchResponse": -1,
            "catchResponseTime": -1,
            "pseudoRound": false,
            "trialTime": 11958
        },
        {
            "exptPart": "trial",
            "trialNumber": 64,
            "roleCurrent": "bullshitDetector",
            "marblesSampled": 10,
            "probabilityRed": 0.2,
            "drawnRed": 2,
            "reportedDrawn": 2,
            "compLie": 2,
            "compUnifLie": false,
            "compDetect": -1,
            "callBS": false,
            "playerTrialScore": 8,
            "oppTrialScore": 2,
            "playerTotalScore": 143,
            "oppTotalScore": 152,
            "waitTime": 6764.99557822496,
            "responseTime": 7773,
            "catchQuestion": "How many red marbles did your opponent report drawing?",
            "catchKey": -1,
            "catchResponse": -1,
            "catchResponseTime": -1,
            "pseudoRound": false,
            "trialTime": 16302
        },
        {
            "exptPart": "trial",
            "trialNumber": 65,
            "roleCurrent": "bullshitter",
            "marblesSampled": 10,
            "probabilityRed": 0.2,
            "drawnRed": 6,
            "reportedDrawn": 7,
            "compLie": -1,
            "compUnifLie": false,
            "compDetect": 0.8221225472000002,
            "callBS": true,
            "playerTrialScore": -5,
            "oppTrialScore": 5,
            "playerTotalScore": 138,
            "oppTotalScore": 157,
            "waitTime": 2391.6521393865896,
            "responseTime": 3319,
            "catchQuestion": "How many red marbles did your opponent report drawing?",
            "catchKey": -1,
            "catchResponse": -1,
            "catchResponseTime": -1,
            "pseudoRound": true,
            "trialTime": 11213
        },
        {
            "exptPart": "trial",
            "trialNumber": 66,
            "roleCurrent": "bullshitDetector",
            "marblesSampled": 10,
            "probabilityRed": 0.2,
            "drawnRed": 1,
            "reportedDrawn": 1,
            "compLie": 1,
            "compUnifLie": false,
            "compDetect": -1,
            "callBS": true,
            "playerTrialScore": 4,
            "oppTrialScore": 1,
            "playerTotalScore": 142,
            "oppTotalScore": 158,
            "waitTime": 5452.371147614182,
            "responseTime": 1823,
            "catchQuestion": "How many red marbles did your opponent report drawing?",
            "catchKey": -1,
            "catchResponse": -1,
            "catchResponseTime": -1,
            "pseudoRound": false,
            "trialTime": 9979
        },
        {
            "exptPart": "trial",
            "trialNumber": 67,
            "roleCurrent": "bullshitter",
            "marblesSampled": 10,
            "probabilityRed": 0.2,
            "drawnRed": 4,
            "reportedDrawn": 4,
            "compLie": -1,
            "compUnifLie": false,
            "compDetect": 0.7894069760000003,
            "callBS": false,
            "playerTrialScore": 4,
            "oppTrialScore": 6,
            "playerTotalScore": 146,
            "oppTotalScore": 164,
            "waitTime": 2884.654187973032,
            "responseTime": 3767,
            "catchQuestion": "How many red marbles did your opponent report drawing?",
            "catchKey": -1,
            "catchResponse": -1,
            "catchResponseTime": -1,
            "pseudoRound": false,
            "trialTime": 19862
        },
        {
            "exptPart": "trial",
            "trialNumber": 68,
            "roleCurrent": "bullshitDetector",
            "marblesSampled": 10,
            "probabilityRed": 0.2,
            "drawnRed": 1,
            "reportedDrawn": 4,
            "compLie": 4,
            "compUnifLie": false,
            "compDetect": -1,
            "callBS": false,
            "playerTrialScore": 6,
            "oppTrialScore": 4,
            "playerTotalScore": 152,
            "oppTotalScore": 168,
            "waitTime": 5378.921158495906,
            "responseTime": 2117,
            "catchQuestion": "How many red marbles did your opponent report drawing?",
            "catchKey": -1,
            "catchResponse": -1,
            "catchResponseTime": -1,
            "pseudoRound": false,
            "trialTime": 9701
        },
        {
            "exptPart": "trial",
            "trialNumber": 69,
            "roleCurrent": "bullshitter",
            "marblesSampled": 10,
            "probabilityRed": 0.2,
            "drawnRed": 10,
            "reportedDrawn": 10,
            "compLie": -1,
            "compUnifLie": false,
            "compDetect": 0.8222004736000001,
            "callBS": true,
            "playerTrialScore": 10,
            "oppTrialScore": -5,
            "playerTotalScore": 162,
            "oppTotalScore": 163,
            "waitTime": 3216.0238904363996,
            "responseTime": 5348,
            "catchQuestion": "How many red marbles did your opponent report drawing?",
            "catchKey": -1,
            "catchResponse": -1,
            "catchResponseTime": -1,
            "pseudoRound": true,
            "trialTime": 13244
        },
        {
            "exptPart": "trial",
            "trialNumber": 70,
            "roleCurrent": "bullshitDetector",
            "marblesSampled": 10,
            "probabilityRed": 0.2,
            "drawnRed": 2,
            "reportedDrawn": 9,
            "compLie": -1,
            "compUnifLie": true,
            "compDetect": 0.8222004736000001,
            "callBS": true,
            "playerTrialScore": 5,
            "oppTrialScore": -5,
            "playerTotalScore": 167,
            "oppTotalScore": 158,
            "waitTime": 6430.390696370862,
            "responseTime": 2224,
            "catchQuestion": "How many red marbles did your opponent report drawing?",
            "catchKey": 9,
            "catchResponse": 9,
            "catchResponseTime": 3161,
            "pseudoRound": false,
            "trialTime": 13800
        },
        {
            "exptPart": "trial",
            "trialNumber": 71,
            "roleCurrent": "bullshitter",
            "marblesSampled": 10,
            "probabilityRed": 0.2,
            "drawnRed": 1,
            "reportedDrawn": 0,
            "compLie": -1,
            "compUnifLie": false,
            "compDetect": -0.07042534400000063,
            "callBS": false,
            "playerTrialScore": 0,
            "oppTrialScore": 10,
            "playerTotalScore": 167,
            "oppTotalScore": 168,
            "waitTime": 2579.9370260069354,
            "responseTime": 3598,
            "catchQuestion": "How many red marbles did your opponent report drawing?",
            "catchKey": -1,
            "catchResponse": -1,
            "catchResponseTime": -1,
            "pseudoRound": false,
            "trialTime": 15220
        },
        {
            "exptPart": "trial",
            "trialNumber": 72,
            "roleCurrent": "bullshitDetector",
            "marblesSampled": 10,
            "probabilityRed": 0.2,
            "drawnRed": 1,
            "reportedDrawn": 4,
            "compLie": -1,
            "compUnifLie": false,
            "compDetect": -0.07042534400000063,
            "callBS": false,
            "playerTrialScore": 6,
            "oppTrialScore": 4,
            "playerTotalScore": 173,
            "oppTotalScore": 172,
            "waitTime": 6640.0886212084515,
            "responseTime": 2964,
            "catchQuestion": "How many red marbles did your opponent report drawing?",
            "catchKey": -1,
            "catchResponse": -1,
            "catchResponseTime": -1,
            "pseudoRound": true,
            "trialTime": 11172
        },
        {
            "exptPart": "trial",
            "trialNumber": 73,
            "roleCurrent": "bullshitter",
            "marblesSampled": 10,
            "probabilityRed": 0.2,
            "drawnRed": 2,
            "reportedDrawn": 4,
            "compLie": -1,
            "compUnifLie": false,
            "compDetect": 0.7894069760000003,
            "callBS": true,
            "playerTrialScore": -5,
            "oppTrialScore": 5,
            "playerTotalScore": 168,
            "oppTotalScore": 177,
            "waitTime": 2881.1043399707773,
            "responseTime": 3248,
            "catchQuestion": "How many red marbles did your opponent report drawing?",
            "catchKey": -1,
            "catchResponse": -1,
            "catchResponseTime": -1,
            "pseudoRound": false,
            "trialTime": 11405
        },
        {
            "exptPart": "trial",
            "trialNumber": 74,
            "roleCurrent": "bullshitDetector",
            "marblesSampled": 10,
            "probabilityRed": 0.2,
            "drawnRed": 1,
            "reportedDrawn": 1,
            "compLie": 1,
            "compUnifLie": false,
            "compDetect": -1,
            "callBS": true,
            "playerTrialScore": 4,
            "oppTrialScore": 1,
            "playerTotalScore": 172,
            "oppTotalScore": 178,
            "waitTime": 7013.302600266517,
            "responseTime": 2459,
            "catchQuestion": "How many red marbles did your opponent report drawing?",
            "catchKey": -1,
            "catchResponse": -1,
            "catchResponseTime": -1,
            "pseudoRound": false,
            "trialTime": 11511
        },
        {
            "exptPart": "trial",
            "trialNumber": 75,
            "roleCurrent": "bullshitter",
            "marblesSampled": 10,
            "probabilityRed": 0.2,
            "drawnRed": 2,
            "reportedDrawn": 2,
            "compLie": -1,
            "compUnifLie": false,
            "compDetect": 0.5,
            "callBS": false,
            "playerTrialScore": 2,
            "oppTrialScore": 8,
            "playerTotalScore": 174,
            "oppTotalScore": 186,
            "waitTime": 2500.508763904901,
            "responseTime": 2961,
            "catchQuestion": "How many red marbles did your opponent report drawing?",
            "catchKey": -1,
            "catchResponse": -1,
            "catchResponseTime": -1,
            "pseudoRound": false,
            "trialTime": 10818
        },
        {
            "exptPart": "trial",
            "trialNumber": 76,
            "roleCurrent": "bullshitDetector",
            "marblesSampled": 10,
            "probabilityRed": 0.2,
            "drawnRed": 4,
            "reportedDrawn": 4,
            "compLie": 2,
            "compUnifLie": false,
            "compDetect": -1,
            "callBS": false,
            "playerTrialScore": 6,
            "oppTrialScore": 4,
            "playerTotalScore": 180,
            "oppTotalScore": 190,
            "waitTime": 6916.864018774033,
            "responseTime": 1756,
            "catchQuestion": "How many red marbles did your opponent report drawing?",
            "catchKey": -1,
            "catchResponse": -1,
            "catchResponseTime": -1,
            "pseudoRound": false,
            "trialTime": 10466
        },
        {
            "exptPart": "trial",
            "trialNumber": 77,
            "roleCurrent": "bullshitter",
            "marblesSampled": 10,
            "probabilityRed": 0.2,
            "drawnRed": 3,
            "reportedDrawn": 3,
            "compLie": -1,
            "compUnifLie": false,
            "compDetect": 0.7013265920000002,
            "callBS": true,
            "playerTrialScore": 3,
            "oppTrialScore": 2,
            "playerTotalScore": 183,
            "oppTotalScore": 192,
            "waitTime": 2755.7900422168013,
            "responseTime": 5522,
            "catchQuestion": "How many red marbles did your opponent report drawing?",
            "catchKey": -1,
            "catchResponse": -1,
            "catchResponseTime": -1,
            "pseudoRound": false,
            "trialTime": 13460
        },
        {
            "exptPart": "trial",
            "trialNumber": 78,
            "roleCurrent": "bullshitDetector",
            "marblesSampled": 10,
            "probabilityRed": 0.2,
            "drawnRed": 2,
            "reportedDrawn": 3,
            "compLie": 3,
            "compUnifLie": false,
            "compDetect": -1,
            "callBS": false,
            "playerTrialScore": 7,
            "oppTrialScore": 3,
            "playerTotalScore": 190,
            "oppTotalScore": 195,
            "waitTime": 5240.036362366584,
            "responseTime": 2458,
            "catchQuestion": "How many red marbles did your opponent report drawing?",
            "catchKey": -1,
            "catchResponse": -1,
            "catchResponseTime": -1,
            "pseudoRound": false,
            "trialTime": 9280
        },
        {
            "exptPart": "trial",
            "trialNumber": 79,
            "roleCurrent": "bullshitter",
            "marblesSampled": 10,
            "probabilityRed": 0.2,
            "drawnRed": 1,
            "reportedDrawn": 1,
            "compLie": -1,
            "compUnifLie": false,
            "compDetect": 0.19801011199999963,
            "callBS": false,
            "playerTrialScore": 1,
            "oppTrialScore": 9,
            "playerTotalScore": 191,
            "oppTotalScore": 204,
            "waitTime": 3172.3506689554442,
            "responseTime": 3816,
            "catchQuestion": "How many red marbles did your opponent report drawing?",
            "catchKey": -1,
            "catchResponse": -1,
            "catchResponseTime": -1,
            "pseudoRound": false,
            "trialTime": 18873
        },
        {
            "exptPart": "trial",
            "trialNumber": 80,
            "roleCurrent": "bullshitDetector",
            "marblesSampled": 10,
            "probabilityRed": 0.2,
            "drawnRed": 1,
            "reportedDrawn": 7,
            "compLie": -1,
            "compUnifLie": true,
            "compDetect": 0.19801011199999963,
            "callBS": false,
            "playerTrialScore": 3,
            "oppTrialScore": 7,
            "playerTotalScore": 194,
            "oppTotalScore": 211,
            "waitTime": 5773.936214217298,
            "responseTime": 1841,
            "catchQuestion": "How many red marbles did your opponent report drawing?",
            "catchKey": 7,
            "catchResponse": 7,
            "catchResponseTime": 3675,
            "pseudoRound": false,
            "trialTime": 13622
        },
        {
            "exptPart": "trial",
            "trialNumber": 81,
            "roleCurrent": "bullshitter",
            "marblesSampled": 10,
            "probabilityRed": 0.2,
            "drawnRed": 3,
            "reportedDrawn": 5,
            "compLie": -1,
            "compUnifLie": false,
            "compDetect": 0.8158310912000003,
            "callBS": true,
            "playerTrialScore": -5,
            "oppTrialScore": 5,
            "playerTotalScore": 189,
            "oppTotalScore": 216,
            "waitTime": 3232.8916617943732,
            "responseTime": 5183,
            "catchQuestion": "How many red marbles did your opponent report drawing?",
            "catchKey": -1,
            "catchResponse": -1,
            "catchResponseTime": -1,
            "pseudoRound": false,
            "trialTime": 22773
        },
        {
            "exptPart": "trial",
            "trialNumber": 82,
            "roleCurrent": "bullshitDetector",
            "marblesSampled": 10,
            "probabilityRed": 0.2,
            "drawnRed": 2,
            "reportedDrawn": 4,
            "compLie": 4,
            "compUnifLie": false,
            "compDetect": -1,
            "callBS": false,
            "playerTrialScore": 6,
            "oppTrialScore": 4,
            "playerTotalScore": 195,
            "oppTotalScore": 220,
            "waitTime": 5672.0144888942505,
            "responseTime": 2205,
            "catchQuestion": "How many red marbles did your opponent report drawing?",
            "catchKey": -1,
            "catchResponse": -1,
            "catchResponseTime": -1,
            "pseudoRound": false,
            "trialTime": 9919
        },
        {
            "exptPart": "trial",
            "trialNumber": 83,
            "roleCurrent": "bullshitter",
            "marblesSampled": 10,
            "probabilityRed": 0.2,
            "drawnRed": 3,
            "reportedDrawn": 8,
            "compLie": -1,
            "compUnifLie": false,
            "compDetect": 0.8221962752000003,
            "callBS": true,
            "playerTrialScore": -5,
            "oppTrialScore": 5,
            "playerTotalScore": 190,
            "oppTotalScore": 225,
            "waitTime": 2243.577790944062,
            "responseTime": 3531,
            "catchQuestion": "How many red marbles did your opponent report drawing?",
            "catchKey": -1,
            "catchResponse": -1,
            "catchResponseTime": -1,
            "pseudoRound": true,
            "trialTime": 12607
        },
        {
            "exptPart": "trial",
            "trialNumber": 84,
            "roleCurrent": "bullshitDetector",
            "marblesSampled": 10,
            "probabilityRed": 0.2,
            "drawnRed": 1,
            "reportedDrawn": 4,
            "compLie": -1,
            "compUnifLie": true,
            "compDetect": 0.8221962752000003,
            "callBS": false,
            "playerTrialScore": 6,
            "oppTrialScore": 4,
            "playerTotalScore": 196,
            "oppTotalScore": 229,
            "waitTime": 6813.406639170937,
            "responseTime": 4778,
            "catchQuestion": "How many red marbles did your opponent report drawing?",
            "catchKey": -1,
            "catchResponse": -1,
            "catchResponseTime": -1,
            "pseudoRound": false,
            "trialTime": 13348
        },
        {
            "exptPart": "trial",
            "trialNumber": 85,
            "roleCurrent": "bullshitter",
            "marblesSampled": 10,
            "probabilityRed": 0.2,
            "drawnRed": 7,
            "reportedDrawn": 7,
            "compLie": -1,
            "compUnifLie": false,
            "compDetect": 0.8221225472000002,
            "callBS": true,
            "playerTrialScore": 7,
            "oppTrialScore": -2,
            "playerTotalScore": 203,
            "oppTotalScore": 227,
            "waitTime": 2999.1285801963504,
            "responseTime": 3051,
            "catchQuestion": "How many red marbles did your opponent report drawing?",
            "catchKey": -1,
            "catchResponse": -1,
            "catchResponseTime": -1,
            "pseudoRound": true,
            "trialTime": 11930
        },
        {
            "exptPart": "trial",
            "trialNumber": 86,
            "roleCurrent": "bullshitDetector",
            "marblesSampled": 10,
            "probabilityRed": 0.2,
            "drawnRed": 1,
            "reportedDrawn": 1,
            "compLie": 1,
            "compUnifLie": false,
            "compDetect": -1,
            "callBS": false,
            "playerTrialScore": 9,
            "oppTrialScore": 1,
            "playerTotalScore": 212,
            "oppTotalScore": 228,
            "waitTime": 5396.92591478752,
            "responseTime": 31826,
            "catchQuestion": "How many red marbles did your opponent report drawing?",
            "catchKey": -1,
            "catchResponse": -1,
            "catchResponseTime": -1,
            "pseudoRound": false,
            "trialTime": 39168
        },
        {
            "exptPart": "trial",
            "trialNumber": 87,
            "roleCurrent": "bullshitter",
            "marblesSampled": 10,
            "probabilityRed": 0.2,
            "drawnRed": 1,
            "reportedDrawn": 9,
            "compLie": -1,
            "compUnifLie": false,
            "compDetect": 0.8222003712000002,
            "callBS": true,
            "playerTrialScore": -5,
            "oppTrialScore": 5,
            "playerTotalScore": 207,
            "oppTotalScore": 233,
            "waitTime": 2701.479139913453,
            "responseTime": 3105,
            "catchQuestion": "How many red marbles did your opponent report drawing?",
            "catchKey": -1,
            "catchResponse": -1,
            "catchResponseTime": -1,
            "pseudoRound": false,
            "trialTime": 10176
        },
        {
            "exptPart": "trial",
            "trialNumber": 88,
            "roleCurrent": "bullshitDetector",
            "marblesSampled": 10,
            "probabilityRed": 0.2,
            "drawnRed": 2,
            "reportedDrawn": 7,
            "compLie": -1,
            "compUnifLie": false,
            "compDetect": 0.8222003712000002,
            "callBS": false,
            "playerTrialScore": 3,
            "oppTrialScore": 7,
            "playerTotalScore": 210,
            "oppTotalScore": 240,
            "waitTime": 6609.74629771911,
            "responseTime": 1566,
            "catchQuestion": "How many red marbles did your opponent report drawing?",
            "catchKey": 7,
            "catchResponse": 7,
            "catchResponseTime": 3140,
            "pseudoRound": true,
            "trialTime": 12826
        },
        {
            "exptPart": "trial",
            "trialNumber": 89,
            "roleCurrent": "bullshitter",
            "marblesSampled": 10,
            "probabilityRed": 0.2,
            "drawnRed": 3,
            "reportedDrawn": 3,
            "compLie": -1,
            "compUnifLie": false,
            "compDetect": 0.7013265920000002,
            "callBS": true,
            "playerTrialScore": 3,
            "oppTrialScore": 2,
            "playerTotalScore": 213,
            "oppTotalScore": 242,
            "waitTime": 2759.5172726917817,
            "responseTime": 4007,
            "catchQuestion": "How many red marbles did your opponent report drawing?",
            "catchKey": -1,
            "catchResponse": -1,
            "catchResponseTime": -1,
            "pseudoRound": false,
            "trialTime": 11488
        },
        {
            "exptPart": "trial",
            "trialNumber": 90,
            "roleCurrent": "bullshitDetector",
            "marblesSampled": 10,
            "probabilityRed": 0.2,
            "drawnRed": 2,
            "reportedDrawn": 3,
            "compLie": 3,
            "compUnifLie": false,
            "compDetect": -1,
            "callBS": false,
            "playerTrialScore": 7,
            "oppTrialScore": 3,
            "playerTotalScore": 220,
            "oppTotalScore": 245,
            "waitTime": 6096.675367371357,
            "responseTime": 1247,
            "catchQuestion": "How many red marbles did your opponent report drawing?",
            "catchKey": -1,
            "catchResponse": -1,
            "catchResponseTime": -1,
            "pseudoRound": false,
            "trialTime": 9449
        },
        {
            "exptPart": "trial",
            "trialNumber": 91,
            "roleCurrent": "bullshitter",
            "marblesSampled": 10,
            "probabilityRed": 0.2,
            "drawnRed": 3,
            "reportedDrawn": 7,
            "compLie": -1,
            "compUnifLie": false,
            "compDetect": 0.8221225472000002,
            "callBS": true,
            "playerTrialScore": -5,
            "oppTrialScore": 5,
            "playerTotalScore": 215,
            "oppTotalScore": 250,
            "waitTime": 3020.692670999733,
            "responseTime": 2861,
            "catchQuestion": "How many red marbles did your opponent report drawing?",
            "catchKey": -1,
            "catchResponse": -1,
            "catchResponseTime": -1,
            "pseudoRound": false,
            "trialTime": 11125
        },
        {
            "exptPart": "trial",
            "trialNumber": 92,
            "roleCurrent": "bullshitDetector",
            "marblesSampled": 10,
            "probabilityRed": 0.2,
            "drawnRed": 2,
            "reportedDrawn": 2,
            "compLie": 2,
            "compUnifLie": false,
            "compDetect": -1,
            "callBS": false,
            "playerTrialScore": 8,
            "oppTrialScore": 2,
            "playerTotalScore": 223,
            "oppTotalScore": 252,
            "waitTime": 5324.957719511192,
            "responseTime": 1739,
            "catchQuestion": "How many red marbles did your opponent report drawing?",
            "catchKey": -1,
            "catchResponse": -1,
            "catchResponseTime": -1,
            "pseudoRound": false,
            "trialTime": 8829
        },
        {
            "exptPart": "trial",
            "trialNumber": 93,
            "roleCurrent": "bullshitter",
            "marblesSampled": 10,
            "probabilityRed": 0.2,
            "drawnRed": 3,
            "reportedDrawn": 7,
            "compLie": -1,
            "compUnifLie": false,
            "compDetect": 0.8221225472000002,
            "callBS": false,
            "playerTrialScore": 7,
            "oppTrialScore": 3,
            "playerTotalScore": 230,
            "oppTotalScore": 255,
            "waitTime": 2772.7579837870403,
            "responseTime": 3555,
            "catchQuestion": "How many red marbles did your opponent report drawing?",
            "catchKey": -1,
            "catchResponse": -1,
            "catchResponseTime": -1,
            "pseudoRound": false,
            "trialTime": 10503
        },
        {
            "exptPart": "trial",
            "trialNumber": 94,
            "roleCurrent": "bullshitDetector",
            "marblesSampled": 10,
            "probabilityRed": 0.2,
            "drawnRed": 2,
            "reportedDrawn": 2,
            "compLie": 2,
            "compUnifLie": false,
            "compDetect": -1,
            "callBS": false,
            "playerTrialScore": 8,
            "oppTrialScore": 2,
            "playerTotalScore": 238,
            "oppTotalScore": 257,
            "waitTime": 7354.805551504315,
            "responseTime": 5982,
            "catchQuestion": "How many red marbles did your opponent report drawing?",
            "catchKey": -1,
            "catchResponse": -1,
            "catchResponseTime": -1,
            "pseudoRound": false,
            "trialTime": 15234
        },
        {
            "exptPart": "trial",
            "trialNumber": 95,
            "roleCurrent": "bullshitter",
            "marblesSampled": 10,
            "probabilityRed": 0.2,
            "drawnRed": 2,
            "reportedDrawn": 6,
            "compLie": -1,
            "compUnifLie": false,
            "compDetect": 0.8213361152000003,
            "callBS": false,
            "playerTrialScore": 6,
            "oppTrialScore": 4,
            "playerTotalScore": 244,
            "oppTotalScore": 261,
            "waitTime": 2531.327636437305,
            "responseTime": 3389,
            "catchQuestion": "How many red marbles did your opponent report drawing?",
            "catchKey": -1,
            "catchResponse": -1,
            "catchResponseTime": -1,
            "pseudoRound": false,
            "trialTime": 10560
        },
        {
            "exptPart": "trial",
            "trialNumber": 96,
            "roleCurrent": "bullshitDetector",
            "marblesSampled": 10,
            "probabilityRed": 0.2,
            "drawnRed": 3,
            "reportedDrawn": 3,
            "compLie": 2,
            "compUnifLie": false,
            "compDetect": -1,
            "callBS": false,
            "playerTrialScore": 7,
            "oppTrialScore": 3,
            "playerTotalScore": 251,
            "oppTotalScore": 264,
            "waitTime": 7108.510997448351,
            "responseTime": 3187,
            "catchQuestion": "How many red marbles did your opponent report drawing?",
            "catchKey": -1,
            "catchResponse": -1,
            "catchResponseTime": -1,
            "pseudoRound": false,
            "trialTime": 12227
        },
        {
            "exptPart": "trial",
            "trialNumber": 97,
            "roleCurrent": "bullshitter",
            "marblesSampled": 10,
            "probabilityRed": 0.2,
            "drawnRed": 2,
            "reportedDrawn": 8,
            "compLie": -1,
            "compUnifLie": false,
            "compDetect": 0.8221962752000003,
            "callBS": true,
            "playerTrialScore": -5,
            "oppTrialScore": 5,
            "playerTotalScore": 246,
            "oppTotalScore": 269,
            "waitTime": 2648.2697047433567,
            "responseTime": 3599,
            "catchQuestion": "How many red marbles did your opponent report drawing?",
            "catchKey": -1,
            "catchResponse": -1,
            "catchResponseTime": -1,
            "pseudoRound": false,
            "trialTime": 10757
        },
        {
            "exptPart": "trial",
            "trialNumber": 98,
            "roleCurrent": "bullshitDetector",
            "marblesSampled": 10,
            "probabilityRed": 0.2,
            "drawnRed": 0,
            "reportedDrawn": 4,
            "compLie": -1,
            "compUnifLie": true,
            "compDetect": 0.8221962752000003,
            "callBS": false,
            "playerTrialScore": 6,
            "oppTrialScore": 4,
            "playerTotalScore": 252,
            "oppTotalScore": 273,
            "waitTime": 6658.008822309863,
            "responseTime": 2222,
            "catchQuestion": "How many red marbles did your opponent report drawing?",
            "catchKey": 4,
            "catchResponse": 4,
            "catchResponseTime": 3865,
            "pseudoRound": false,
            "trialTime": 14058
        },
        {
            "exptPart": "trial",
            "trialNumber": 99,
            "roleCurrent": "bullshitter",
            "marblesSampled": 10,
            "probabilityRed": 0.2,
            "drawnRed": 3,
            "reportedDrawn": 4,
            "compLie": -1,
            "compUnifLie": false,
            "compDetect": 0.7894069760000003,
            "callBS": true,
            "playerTrialScore": -5,
            "oppTrialScore": 5,
            "playerTotalScore": 247,
            "oppTotalScore": 278,
            "waitTime": 2282.82245619677,
            "responseTime": 3361,
            "catchQuestion": "How many red marbles did your opponent report drawing?",
            "catchKey": -1,
            "catchResponse": -1,
            "catchResponseTime": -1,
            "pseudoRound": false,
            "trialTime": 10411
        },
        {
            "exptPart": "trial",
            "trialNumber": 100,
            "roleCurrent": "bullshitDetector",
            "marblesSampled": 10,
            "probabilityRed": 0.2,
            "drawnRed": 1,
            "reportedDrawn": 1,
            "compLie": -1,
            "compUnifLie": false,
            "compDetect": 0.7894069760000003,
            "callBS": false,
            "playerTrialScore": 9,
            "oppTrialScore": 1,
            "playerTotalScore": 256,
            "oppTotalScore": 279,
            "waitTime": 6365.350760296573,
            "responseTime": 2210,
            "catchQuestion": "How many red marbles did your opponent report drawing?",
            "catchKey": -1,
            "catchResponse": -1,
            "catchResponseTime": -1,
            "pseudoRound": true,
            "trialTime": 10908
        }
    ]
}