{
    "client": {
        "type": "sona",
        "experiment_id": 1505,
        "credit_token": "b20092f9d3b34a378ee654bcc50710ea",
        "survey_code": "36323",
        "sid": "sona-36323",
        "window": {
            "width": 1440,
            "height": 732
        },
        "screen": {
            "width": 1440,
            "height": 900
        },
        "userAgent": "Mozilla\/5.0 (Macintosh; Intel Mac OS X 10_14_5) AppleWebKit\/537.36 (KHTML, like Gecko) Chrome\/95.0.4638.54 Safari\/537.36",
        "score": 0,
        "bonus": 0
    },
    "expt": {
        "saveURL": "submit.simple.php",
        "trials": 100,
        "practiceTrials": 4,
        "marblesSampled": 10,
        "roles": [
            "bullshitter",
            "bullshitDetector"
        ],
        "roleFirst": "bullshitDetector",
        "allTrialProbs": [
            0.2,
            0.5,
            0.8
        ],
        "trialProbs": 0.2,
        "catchTrials": [
            3,
            17,
            23,
            38,
            44,
            57,
            61,
            75,
            84,
            92
        ],
        "pseudo": {
            "5": 9,
            "6": 3,
            "10": 9,
            "13": 6,
            "14": 7,
            "15": 1,
            "17": 0,
            "25": 5,
            "41": 2,
            "50": 4,
            "54": 2,
            "59": 7,
            "60": 1,
            "71": 4,
            "72": 0,
            "78": 8,
            "79": 10,
            "86": 6,
            "90": 5,
            "97": 8,
            "99": 3,
            "100": 10
        },
        "stat": {
            "playerTotalScore": 426,
            "oppTotalScore": 419,
            "truth": 42,
            "truth_noBS": 19,
            "truth_BS": 23,
            "lie": 8,
            "lie_noBS": 4,
            "lie_BS": 4,
            "noBS": 50,
            "noBS_truth": 19,
            "noBS_lie": 31,
            "BS": 0,
            "BS_truth": 0,
            "BS_lie": 0
        },
        "sona": {
            "experiment_id": 1505,
            "credit_token": "b20092f9d3b34a378ee654bcc50710ea"
        }
    },
    "trials": [
        {
            "exptPart": "practice",
            "trialNumber": 1,
            "roleCurrent": "bullshitter",
            "marblesSampled": 10,
            "probabilityRed": 0.2,
            "drawnRed": 0,
            "reportedDrawn": 4,
            "compLie": -1,
            "compUnifLie": false,
            "compDetect": 0.7894069760000002,
            "callBS": true,
            "playerTrialScore": -5,
            "oppTrialScore": 5,
            "playerTotalScore": -5,
            "oppTotalScore": 5,
            "waitTime": 2299.891041906898,
            "responseTime": 8967,
            "catchQuestion": "How many red marbles did you actually draw?",
            "catchKey": 0,
            "catchResponse": 0,
            "catchResponseTime": 6196,
            "pseudoRound": false,
            "trialTime": 31055
        },
        {
            "exptPart": "practice",
            "trialNumber": 2,
            "roleCurrent": "bullshitDetector",
            "marblesSampled": 10,
            "probabilityRed": 0.2,
            "drawnRed": 2,
            "reportedDrawn": 3,
            "compLie": 3,
            "compUnifLie": false,
            "compDetect": -1,
            "callBS": false,
            "playerTrialScore": 7,
            "oppTrialScore": 3,
            "playerTotalScore": 2,
            "oppTotalScore": 8,
            "waitTime": 5174.741431720964,
            "responseTime": 2647,
            "catchQuestion": "How many red marbles did you actually draw?",
            "catchKey": -1,
            "catchResponse": -1,
            "catchResponseTime": -1,
            "pseudoRound": false,
            "trialTime": 13279
        },
        {
            "exptPart": "practice",
            "trialNumber": 3,
            "roleCurrent": "bullshitter",
            "marblesSampled": 10,
            "probabilityRed": 0.2,
            "drawnRed": 5,
            "reportedDrawn": 5,
            "compLie": -1,
            "compUnifLie": false,
            "compDetect": 0.8158310912000002,
            "callBS": true,
            "playerTrialScore": 5,
            "oppTrialScore": 0,
            "playerTotalScore": 7,
            "oppTotalScore": 8,
            "waitTime": 2778.1937324839555,
            "responseTime": 2609,
            "catchQuestion": "How many red marbles did you actually draw?",
            "catchKey": 5,
            "catchResponse": 5,
            "catchResponseTime": 5710,
            "pseudoRound": false,
            "trialTime": 17759
        },
        {
            "exptPart": "practice",
            "trialNumber": 4,
            "roleCurrent": "bullshitDetector",
            "marblesSampled": 10,
            "probabilityRed": 0.2,
            "drawnRed": 0,
            "reportedDrawn": 1,
            "compLie": 1,
            "compUnifLie": false,
            "compDetect": -1,
            "callBS": true,
            "playerTrialScore": 5,
            "oppTrialScore": -5,
            "playerTotalScore": 12,
            "oppTotalScore": 3,
            "waitTime": 5615.64385056926,
            "responseTime": 4749,
            "catchQuestion": "How many red marbles did you actually draw?",
            "catchKey": -1,
            "catchResponse": -1,
            "catchResponseTime": -1,
            "pseudoRound": false,
            "trialTime": 14789
        },
        {
            "exptPart": "trial",
            "trialNumber": 1,
            "roleCurrent": "bullshitDetector",
            "marblesSampled": 10,
            "probabilityRed": 0.2,
            "drawnRed": 3,
            "reportedDrawn": 3,
            "compLie": 1,
            "compUnifLie": false,
            "compDetect": -1,
            "callBS": false,
            "playerTrialScore": 7,
            "oppTrialScore": 3,
            "playerTotalScore": 7,
            "oppTotalScore": 3,
            "waitTime": 5877.6423316596365,
            "responseTime": 10465,
            "catchQuestion": "How many red marbles did you actually draw?",
            "catchKey": -1,
            "catchResponse": -1,
            "catchResponseTime": -1,
            "pseudoRound": false,
            "trialTime": 18783
        },
        {
            "exptPart": "trial",
            "trialNumber": 2,
            "roleCurrent": "bullshitter",
            "marblesSampled": 10,
            "probabilityRed": 0.2,
            "drawnRed": 1,
            "reportedDrawn": 1,
            "compLie": -1,
            "compUnifLie": false,
            "compDetect": 0.1980101119999998,
            "callBS": false,
            "playerTrialScore": 1,
            "oppTrialScore": 9,
            "playerTotalScore": 8,
            "oppTotalScore": 12,
            "waitTime": 2657.06158037999,
            "responseTime": 2746,
            "catchQuestion": "How many red marbles did you actually draw?",
            "catchKey": -1,
            "catchResponse": -1,
            "catchResponseTime": -1,
            "pseudoRound": false,
            "trialTime": 12354
        },
        {
            "exptPart": "trial",
            "trialNumber": 3,
            "roleCurrent": "bullshitDetector",
            "marblesSampled": 10,
            "probabilityRed": 0.2,
            "drawnRed": 3,
            "reportedDrawn": 4,
            "compLie": 4,
            "compUnifLie": false,
            "compDetect": -1,
            "callBS": false,
            "playerTrialScore": 6,
            "oppTrialScore": 4,
            "playerTotalScore": 14,
            "oppTotalScore": 16,
            "waitTime": 5468.870661775707,
            "responseTime": 2189,
            "catchQuestion": "How many red marbles did you actually draw?",
            "catchKey": -1,
            "catchResponse": -1,
            "catchResponseTime": -1,
            "pseudoRound": false,
            "trialTime": 9001
        },
        {
            "exptPart": "trial",
            "trialNumber": 4,
            "roleCurrent": "bullshitter",
            "marblesSampled": 10,
            "probabilityRed": 0.2,
            "drawnRed": 2,
            "reportedDrawn": 2,
            "compLie": -1,
            "compUnifLie": false,
            "compDetect": 0.5,
            "callBS": true,
            "playerTrialScore": 2,
            "oppTrialScore": 3,
            "playerTotalScore": 16,
            "oppTotalScore": 19,
            "waitTime": 2466.401068524963,
            "responseTime": 4017,
            "catchQuestion": "How many red marbles did you actually draw?",
            "catchKey": 2,
            "catchResponse": 3,
            "catchResponseTime": 3086,
            "pseudoRound": false,
            "trialTime": 24416
        },
        {
            "exptPart": "trial",
            "trialNumber": 5,
            "roleCurrent": "bullshitDetector",
            "marblesSampled": 10,
            "probabilityRed": 0.2,
            "drawnRed": 3,
            "reportedDrawn": 5,
            "compLie": -1,
            "compUnifLie": true,
            "compDetect": 0.5,
            "callBS": false,
            "playerTrialScore": 5,
            "oppTrialScore": 5,
            "playerTotalScore": 21,
            "oppTotalScore": 24,
            "waitTime": 5217.402359526562,
            "responseTime": 13439,
            "catchQuestion": "How many red marbles did you actually draw?",
            "catchKey": -1,
            "catchResponse": -1,
            "catchResponseTime": -1,
            "pseudoRound": false,
            "trialTime": 21115
        },
        {
            "exptPart": "trial",
            "trialNumber": 6,
            "roleCurrent": "bullshitter",
            "marblesSampled": 10,
            "probabilityRed": 0.2,
            "drawnRed": 9,
            "reportedDrawn": 9,
            "compLie": -1,
            "compUnifLie": false,
            "compDetect": 0.8222003712000001,
            "callBS": true,
            "playerTrialScore": 9,
            "oppTrialScore": -4,
            "playerTotalScore": 30,
            "oppTotalScore": 20,
            "waitTime": 2572.5022944565603,
            "responseTime": 2656,
            "catchQuestion": "How many red marbles did you actually draw?",
            "catchKey": -1,
            "catchResponse": -1,
            "catchResponseTime": -1,
            "pseudoRound": true,
            "trialTime": 16102
        },
        {
            "exptPart": "trial",
            "trialNumber": 7,
            "roleCurrent": "bullshitDetector",
            "marblesSampled": 10,
            "probabilityRed": 0.2,
            "drawnRed": 2,
            "reportedDrawn": 3,
            "compLie": -1,
            "compUnifLie": false,
            "compDetect": 0.8222003712000001,
            "callBS": false,
            "playerTrialScore": 7,
            "oppTrialScore": 3,
            "playerTotalScore": 37,
            "oppTotalScore": 23,
            "waitTime": 7231.932429127499,
            "responseTime": 1824,
            "catchQuestion": "How many red marbles did you actually draw?",
            "catchKey": -1,
            "catchResponse": -1,
            "catchResponseTime": -1,
            "pseudoRound": true,
            "trialTime": 10968
        },
        {
            "exptPart": "trial",
            "trialNumber": 8,
            "roleCurrent": "bullshitter",
            "marblesSampled": 10,
            "probabilityRed": 0.2,
            "drawnRed": 3,
            "reportedDrawn": 3,
            "compLie": -1,
            "compUnifLie": false,
            "compDetect": 0.7013265920000001,
            "callBS": true,
            "playerTrialScore": 3,
            "oppTrialScore": 2,
            "playerTotalScore": 40,
            "oppTotalScore": 25,
            "waitTime": 2507.97634649469,
            "responseTime": 4245,
            "catchQuestion": "How many red marbles did you actually draw?",
            "catchKey": -1,
            "catchResponse": -1,
            "catchResponseTime": -1,
            "pseudoRound": false,
            "trialTime": 75050
        },
        {
            "exptPart": "trial",
            "trialNumber": 9,
            "roleCurrent": "bullshitDetector",
            "marblesSampled": 10,
            "probabilityRed": 0.2,
            "drawnRed": 1,
            "reportedDrawn": 6,
            "compLie": -1,
            "compUnifLie": true,
            "compDetect": 0.7013265920000001,
            "callBS": false,
            "playerTrialScore": 4,
            "oppTrialScore": 6,
            "playerTotalScore": 44,
            "oppTotalScore": 31,
            "waitTime": 5526.415189717673,
            "responseTime": 21153,
            "catchQuestion": "How many red marbles did you actually draw?",
            "catchKey": -1,
            "catchResponse": -1,
            "catchResponseTime": -1,
            "pseudoRound": false,
            "trialTime": 32537
        },
        {
            "exptPart": "trial",
            "trialNumber": 10,
            "roleCurrent": "bullshitter",
            "marblesSampled": 10,
            "probabilityRed": 0.2,
            "drawnRed": 4,
            "reportedDrawn": 4,
            "compLie": -1,
            "compUnifLie": false,
            "compDetect": 0.7894069760000002,
            "callBS": true,
            "playerTrialScore": 4,
            "oppTrialScore": 1,
            "playerTotalScore": 48,
            "oppTotalScore": 32,
            "waitTime": 3140.390071449694,
            "responseTime": 3727,
            "catchQuestion": "How many red marbles did you actually draw?",
            "catchKey": -1,
            "catchResponse": -1,
            "catchResponseTime": -1,
            "pseudoRound": false,
            "trialTime": 13349
        },
        {
            "exptPart": "trial",
            "trialNumber": 11,
            "roleCurrent": "bullshitDetector",
            "marblesSampled": 10,
            "probabilityRed": 0.2,
            "drawnRed": 0,
            "reportedDrawn": 9,
            "compLie": -1,
            "compUnifLie": false,
            "compDetect": 0.7894069760000002,
            "callBS": false,
            "playerTrialScore": 1,
            "oppTrialScore": 9,
            "playerTotalScore": 49,
            "oppTotalScore": 41,
            "waitTime": 5609.384253016375,
            "responseTime": 2853,
            "catchQuestion": "How many red marbles did you actually draw?",
            "catchKey": -1,
            "catchResponse": -1,
            "catchResponseTime": -1,
            "pseudoRound": true,
            "trialTime": 9991
        },
        {
            "exptPart": "trial",
            "trialNumber": 12,
            "roleCurrent": "bullshitter",
            "marblesSampled": 10,
            "probabilityRed": 0.2,
            "drawnRed": 3,
            "reportedDrawn": 3,
            "compLie": -1,
            "compUnifLie": false,
            "compDetect": 0.7013265920000001,
            "callBS": true,
            "playerTrialScore": 3,
            "oppTrialScore": 2,
            "playerTotalScore": 52,
            "oppTotalScore": 43,
            "waitTime": 2291.47157953025,
            "responseTime": 4155,
            "catchQuestion": "How many red marbles did you actually draw?",
            "catchKey": -1,
            "catchResponse": -1,
            "catchResponseTime": -1,
            "pseudoRound": false,
            "trialTime": 16803
        },
        {
            "exptPart": "trial",
            "trialNumber": 13,
            "roleCurrent": "bullshitDetector",
            "marblesSampled": 10,
            "probabilityRed": 0.2,
            "drawnRed": 3,
            "reportedDrawn": 3,
            "compLie": 1,
            "compUnifLie": false,
            "compDetect": -1,
            "callBS": false,
            "playerTrialScore": 7,
            "oppTrialScore": 3,
            "playerTotalScore": 59,
            "oppTotalScore": 46,
            "waitTime": 6676.66566247835,
            "responseTime": 27229,
            "catchQuestion": "How many red marbles did you actually draw?",
            "catchKey": -1,
            "catchResponse": -1,
            "catchResponseTime": -1,
            "pseudoRound": false,
            "trialTime": 51234
        },
        {
            "exptPart": "trial",
            "trialNumber": 14,
            "roleCurrent": "bullshitter",
            "marblesSampled": 10,
            "probabilityRed": 0.2,
            "drawnRed": 6,
            "reportedDrawn": 6,
            "compLie": -1,
            "compUnifLie": false,
            "compDetect": 0.8213361152000002,
            "callBS": true,
            "playerTrialScore": 6,
            "oppTrialScore": -1,
            "playerTotalScore": 65,
            "oppTotalScore": 45,
            "waitTime": 2480.154138479507,
            "responseTime": 4268,
            "catchQuestion": "How many red marbles did you actually draw?",
            "catchKey": -1,
            "catchResponse": -1,
            "catchResponseTime": -1,
            "pseudoRound": true,
            "trialTime": 12371
        },
        {
            "exptPart": "trial",
            "trialNumber": 15,
            "roleCurrent": "bullshitDetector",
            "marblesSampled": 10,
            "probabilityRed": 0.2,
            "drawnRed": 0,
            "reportedDrawn": 7,
            "compLie": -1,
            "compUnifLie": false,
            "compDetect": 0.8213361152000002,
            "callBS": false,
            "playerTrialScore": 3,
            "oppTrialScore": 7,
            "playerTotalScore": 68,
            "oppTotalScore": 52,
            "waitTime": 5880.990775554001,
            "responseTime": 5025,
            "catchQuestion": "How many red marbles did you actually draw?",
            "catchKey": -1,
            "catchResponse": -1,
            "catchResponseTime": -1,
            "pseudoRound": true,
            "trialTime": 12502
        },
        {
            "exptPart": "trial",
            "trialNumber": 16,
            "roleCurrent": "bullshitter",
            "marblesSampled": 10,
            "probabilityRed": 0.2,
            "drawnRed": 1,
            "reportedDrawn": 1,
            "compLie": -1,
            "compUnifLie": false,
            "compDetect": 0.1980101119999998,
            "callBS": false,
            "playerTrialScore": 1,
            "oppTrialScore": 9,
            "playerTotalScore": 69,
            "oppTotalScore": 61,
            "waitTime": 3224.13396572262,
            "responseTime": 5459,
            "catchQuestion": "How many red marbles did you actually draw?",
            "catchKey": -1,
            "catchResponse": -1,
            "catchResponseTime": -1,
            "pseudoRound": true,
            "trialTime": 15579
        },
        {
            "exptPart": "trial",
            "trialNumber": 17,
            "roleCurrent": "bullshitDetector",
            "marblesSampled": 10,
            "probabilityRed": 0.2,
            "drawnRed": 2,
            "reportedDrawn": 3,
            "compLie": -1,
            "compUnifLie": true,
            "compDetect": 0.1980101119999998,
            "callBS": false,
            "playerTrialScore": 7,
            "oppTrialScore": 3,
            "playerTotalScore": 76,
            "oppTotalScore": 64,
            "waitTime": 6105.699665185253,
            "responseTime": 2084,
            "catchQuestion": "How many red marbles did you actually draw?",
            "catchKey": -1,
            "catchResponse": -1,
            "catchResponseTime": -1,
            "pseudoRound": false,
            "trialTime": 9942
        },
        {
            "exptPart": "trial",
            "trialNumber": 18,
            "roleCurrent": "bullshitter",
            "marblesSampled": 10,
            "probabilityRed": 0.2,
            "drawnRed": 0,
            "reportedDrawn": 0,
            "compLie": -1,
            "compUnifLie": false,
            "compDetect": -0.07042534400000035,
            "callBS": false,
            "playerTrialScore": 0,
            "oppTrialScore": 10,
            "playerTotalScore": 76,
            "oppTotalScore": 74,
            "waitTime": 2597.6222254515287,
            "responseTime": 2397,
            "catchQuestion": "How many red marbles did you actually draw?",
            "catchKey": 0,
            "catchResponse": 0,
            "catchResponseTime": 2527,
            "pseudoRound": true,
            "trialTime": 12280
        },
        {
            "exptPart": "trial",
            "trialNumber": 19,
            "roleCurrent": "bullshitDetector",
            "marblesSampled": 10,
            "probabilityRed": 0.2,
            "drawnRed": 0,
            "reportedDrawn": 1,
            "compLie": 1,
            "compUnifLie": false,
            "compDetect": -1,
            "callBS": false,
            "playerTrialScore": 9,
            "oppTrialScore": 1,
            "playerTotalScore": 85,
            "oppTotalScore": 75,
            "waitTime": 5310.075846945682,
            "responseTime": 2234,
            "catchQuestion": "How many red marbles did you actually draw?",
            "catchKey": -1,
            "catchResponse": -1,
            "catchResponseTime": -1,
            "pseudoRound": false,
            "trialTime": 9296
        },
        {
            "exptPart": "trial",
            "trialNumber": 20,
            "roleCurrent": "bullshitter",
            "marblesSampled": 10,
            "probabilityRed": 0.2,
            "drawnRed": 2,
            "reportedDrawn": 2,
            "compLie": -1,
            "compUnifLie": false,
            "compDetect": 0.5,
            "callBS": true,
            "playerTrialScore": 2,
            "oppTrialScore": 3,
            "playerTotalScore": 87,
            "oppTotalScore": 78,
            "waitTime": 2851.51502913251,
            "responseTime": 2535,
            "catchQuestion": "How many red marbles did you actually draw?",
            "catchKey": -1,
            "catchResponse": -1,
            "catchResponseTime": -1,
            "pseudoRound": false,
            "trialTime": 20948
        },
        {
            "exptPart": "trial",
            "trialNumber": 21,
            "roleCurrent": "bullshitDetector",
            "marblesSampled": 10,
            "probabilityRed": 0.2,
            "drawnRed": 0,
            "reportedDrawn": 3,
            "compLie": -1,
            "compUnifLie": true,
            "compDetect": 0.5,
            "callBS": false,
            "playerTrialScore": 7,
            "oppTrialScore": 3,
            "playerTotalScore": 94,
            "oppTotalScore": 81,
            "waitTime": 5408.50410247358,
            "responseTime": 1975,
            "catchQuestion": "How many red marbles did you actually draw?",
            "catchKey": -1,
            "catchResponse": -1,
            "catchResponseTime": -1,
            "pseudoRound": false,
            "trialTime": 9360
        },
        {
            "exptPart": "trial",
            "trialNumber": 22,
            "roleCurrent": "bullshitter",
            "marblesSampled": 10,
            "probabilityRed": 0.2,
            "drawnRed": 1,
            "reportedDrawn": 1,
            "compLie": -1,
            "compUnifLie": false,
            "compDetect": 0.1980101119999998,
            "callBS": true,
            "playerTrialScore": 1,
            "oppTrialScore": 4,
            "playerTotalScore": 95,
            "oppTotalScore": 85,
            "waitTime": 2431.5711241853833,
            "responseTime": 3133,
            "catchQuestion": "How many red marbles did you actually draw?",
            "catchKey": -1,
            "catchResponse": -1,
            "catchResponseTime": -1,
            "pseudoRound": false,
            "trialTime": 22734
        },
        {
            "exptPart": "trial",
            "trialNumber": 23,
            "roleCurrent": "bullshitDetector",
            "marblesSampled": 10,
            "probabilityRed": 0.2,
            "drawnRed": 1,
            "reportedDrawn": 2,
            "compLie": 2,
            "compUnifLie": false,
            "compDetect": -1,
            "callBS": false,
            "playerTrialScore": 8,
            "oppTrialScore": 2,
            "playerTotalScore": 103,
            "oppTotalScore": 87,
            "waitTime": 5750.516568541736,
            "responseTime": 1927,
            "catchQuestion": "How many red marbles did you actually draw?",
            "catchKey": -1,
            "catchResponse": -1,
            "catchResponseTime": -1,
            "pseudoRound": false,
            "trialTime": 9604
        },
        {
            "exptPart": "trial",
            "trialNumber": 24,
            "roleCurrent": "bullshitter",
            "marblesSampled": 10,
            "probabilityRed": 0.2,
            "drawnRed": 2,
            "reportedDrawn": 2,
            "compLie": -1,
            "compUnifLie": false,
            "compDetect": 0.5,
            "callBS": true,
            "playerTrialScore": 2,
            "oppTrialScore": 3,
            "playerTotalScore": 105,
            "oppTotalScore": 90,
            "waitTime": 2936.8739028314085,
            "responseTime": 3231,
            "catchQuestion": "How many red marbles did you actually draw?",
            "catchKey": 2,
            "catchResponse": 2,
            "catchResponseTime": 10110,
            "pseudoRound": false,
            "trialTime": 23734
        },
        {
            "exptPart": "trial",
            "trialNumber": 25,
            "roleCurrent": "bullshitDetector",
            "marblesSampled": 10,
            "probabilityRed": 0.2,
            "drawnRed": 0,
            "reportedDrawn": 0,
            "compLie": 0,
            "compUnifLie": false,
            "compDetect": -1,
            "callBS": false,
            "playerTrialScore": 10,
            "oppTrialScore": 0,
            "playerTotalScore": 115,
            "oppTotalScore": 90,
            "waitTime": 7251.3858287013745,
            "responseTime": 1702,
            "catchQuestion": "How many red marbles did you actually draw?",
            "catchKey": -1,
            "catchResponse": -1,
            "catchResponseTime": -1,
            "pseudoRound": false,
            "trialTime": 10886
        },
        {
            "exptPart": "trial",
            "trialNumber": 26,
            "roleCurrent": "bullshitter",
            "marblesSampled": 10,
            "probabilityRed": 0.2,
            "drawnRed": 5,
            "reportedDrawn": 5,
            "compLie": -1,
            "compUnifLie": false,
            "compDetect": 0.8158310912000002,
            "callBS": true,
            "playerTrialScore": 5,
            "oppTrialScore": 0,
            "playerTotalScore": 120,
            "oppTotalScore": 90,
            "waitTime": 2481.0447576855336,
            "responseTime": 2867,
            "catchQuestion": "How many red marbles did you actually draw?",
            "catchKey": -1,
            "catchResponse": -1,
            "catchResponseTime": -1,
            "pseudoRound": true,
            "trialTime": 9938
        },
        {
            "exptPart": "trial",
            "trialNumber": 27,
            "roleCurrent": "bullshitDetector",
            "marblesSampled": 10,
            "probabilityRed": 0.2,
            "drawnRed": 4,
            "reportedDrawn": 2,
            "compLie": -1,
            "compUnifLie": true,
            "compDetect": 0.8158310912000002,
            "callBS": false,
            "playerTrialScore": 8,
            "oppTrialScore": 2,
            "playerTotalScore": 128,
            "oppTotalScore": 92,
            "waitTime": 5400.10716950427,
            "responseTime": 2087,
            "catchQuestion": "How many red marbles did you actually draw?",
            "catchKey": -1,
            "catchResponse": -1,
            "catchResponseTime": -1,
            "pseudoRound": false,
            "trialTime": 16420
        },
        {
            "exptPart": "trial",
            "trialNumber": 28,
            "roleCurrent": "bullshitter",
            "marblesSampled": 10,
            "probabilityRed": 0.2,
            "drawnRed": 3,
            "reportedDrawn": 3,
            "compLie": -1,
            "compUnifLie": false,
            "compDetect": 0.7013265920000001,
            "callBS": true,
            "playerTrialScore": 3,
            "oppTrialScore": 2,
            "playerTotalScore": 131,
            "oppTotalScore": 94,
            "waitTime": 2306.4280740773966,
            "responseTime": 2942,
            "catchQuestion": "How many red marbles did you actually draw?",
            "catchKey": -1,
            "catchResponse": -1,
            "catchResponseTime": -1,
            "pseudoRound": false,
            "trialTime": 18919
        },
        {
            "exptPart": "trial",
            "trialNumber": 29,
            "roleCurrent": "bullshitDetector",
            "marblesSampled": 10,
            "probabilityRed": 0.2,
            "drawnRed": 0,
            "reportedDrawn": 0,
            "compLie": -1,
            "compUnifLie": true,
            "compDetect": 0.7013265920000001,
            "callBS": false,
            "playerTrialScore": 10,
            "oppTrialScore": 0,
            "playerTotalScore": 141,
            "oppTotalScore": 94,
            "waitTime": 6868.912011323216,
            "responseTime": 1285,
            "catchQuestion": "How many red marbles did you actually draw?",
            "catchKey": -1,
            "catchResponse": -1,
            "catchResponseTime": -1,
            "pseudoRound": false,
            "trialTime": 12102
        },
        {
            "exptPart": "trial",
            "trialNumber": 30,
            "roleCurrent": "bullshitter",
            "marblesSampled": 10,
            "probabilityRed": 0.2,
            "drawnRed": 2,
            "reportedDrawn": 2,
            "compLie": -1,
            "compUnifLie": false,
            "compDetect": 0.5,
            "callBS": true,
            "playerTrialScore": 2,
            "oppTrialScore": 3,
            "playerTotalScore": 143,
            "oppTotalScore": 97,
            "waitTime": 2821.5700583203306,
            "responseTime": 2964,
            "catchQuestion": "How many red marbles did you actually draw?",
            "catchKey": -1,
            "catchResponse": -1,
            "catchResponseTime": -1,
            "pseudoRound": false,
            "trialTime": 16442
        },
        {
            "exptPart": "trial",
            "trialNumber": 31,
            "roleCurrent": "bullshitDetector",
            "marblesSampled": 10,
            "probabilityRed": 0.2,
            "drawnRed": 3,
            "reportedDrawn": 3,
            "compLie": 2,
            "compUnifLie": false,
            "compDetect": -1,
            "callBS": false,
            "playerTrialScore": 7,
            "oppTrialScore": 3,
            "playerTotalScore": 150,
            "oppTotalScore": 100,
            "waitTime": 7400.035295804927,
            "responseTime": 1813,
            "catchQuestion": "How many red marbles did you actually draw?",
            "catchKey": -1,
            "catchResponse": -1,
            "catchResponseTime": -1,
            "pseudoRound": false,
            "trialTime": 10499
        },
        {
            "exptPart": "trial",
            "trialNumber": 32,
            "roleCurrent": "bullshitter",
            "marblesSampled": 10,
            "probabilityRed": 0.2,
            "drawnRed": 1,
            "reportedDrawn": 1,
            "compLie": -1,
            "compUnifLie": false,
            "compDetect": 0.1980101119999998,
            "callBS": false,
            "playerTrialScore": 1,
            "oppTrialScore": 9,
            "playerTotalScore": 151,
            "oppTotalScore": 109,
            "waitTime": 2616.2007203945805,
            "responseTime": 2868,
            "catchQuestion": "How many red marbles did you actually draw?",
            "catchKey": -1,
            "catchResponse": -1,
            "catchResponseTime": -1,
            "pseudoRound": false,
            "trialTime": 10576
        },
        {
            "exptPart": "trial",
            "trialNumber": 33,
            "roleCurrent": "bullshitDetector",
            "marblesSampled": 10,
            "probabilityRed": 0.2,
            "drawnRed": 3,
            "reportedDrawn": 5,
            "compLie": -1,
            "compUnifLie": true,
            "compDetect": 0.1980101119999998,
            "callBS": false,
            "playerTrialScore": 5,
            "oppTrialScore": 5,
            "playerTotalScore": 156,
            "oppTotalScore": 114,
            "waitTime": 5413.849396005975,
            "responseTime": 1632,
            "catchQuestion": "How many red marbles did you actually draw?",
            "catchKey": -1,
            "catchResponse": -1,
            "catchResponseTime": -1,
            "pseudoRound": false,
            "trialTime": 8992
        },
        {
            "exptPart": "trial",
            "trialNumber": 34,
            "roleCurrent": "bullshitter",
            "marblesSampled": 10,
            "probabilityRed": 0.2,
            "drawnRed": 2,
            "reportedDrawn": 2,
            "compLie": -1,
            "compUnifLie": false,
            "compDetect": 0.5,
            "callBS": false,
            "playerTrialScore": 2,
            "oppTrialScore": 8,
            "playerTotalScore": 158,
            "oppTotalScore": 122,
            "waitTime": 2911.8328972506233,
            "responseTime": 3793,
            "catchQuestion": "How many red marbles did you actually draw?",
            "catchKey": -1,
            "catchResponse": -1,
            "catchResponseTime": -1,
            "pseudoRound": false,
            "trialTime": 13187
        },
        {
            "exptPart": "trial",
            "trialNumber": 35,
            "roleCurrent": "bullshitDetector",
            "marblesSampled": 10,
            "probabilityRed": 0.2,
            "drawnRed": 1,
            "reportedDrawn": 4,
            "compLie": 4,
            "compUnifLie": false,
            "compDetect": -1,
            "callBS": false,
            "playerTrialScore": 6,
            "oppTrialScore": 4,
            "playerTotalScore": 164,
            "oppTotalScore": 126,
            "waitTime": 7100.155091528066,
            "responseTime": 14110,
            "catchQuestion": "How many red marbles did you actually draw?",
            "catchKey": -1,
            "catchResponse": -1,
            "catchResponseTime": -1,
            "pseudoRound": false,
            "trialTime": 23233
        },
        {
            "exptPart": "trial",
            "trialNumber": 36,
            "roleCurrent": "bullshitter",
            "marblesSampled": 10,
            "probabilityRed": 0.2,
            "drawnRed": 1,
            "reportedDrawn": 1,
            "compLie": -1,
            "compUnifLie": false,
            "compDetect": 0.1980101119999998,
            "callBS": false,
            "playerTrialScore": 1,
            "oppTrialScore": 9,
            "playerTotalScore": 165,
            "oppTotalScore": 135,
            "waitTime": 3000.883288188947,
            "responseTime": 3005,
            "catchQuestion": "How many red marbles did you actually draw?",
            "catchKey": -1,
            "catchResponse": -1,
            "catchResponseTime": -1,
            "pseudoRound": false,
            "trialTime": 20106
        },
        {
            "exptPart": "trial",
            "trialNumber": 37,
            "roleCurrent": "bullshitDetector",
            "marblesSampled": 10,
            "probabilityRed": 0.2,
            "drawnRed": 2,
            "reportedDrawn": 2,
            "compLie": 2,
            "compUnifLie": false,
            "compDetect": -1,
            "callBS": false,
            "playerTrialScore": 8,
            "oppTrialScore": 2,
            "playerTotalScore": 173,
            "oppTotalScore": 137,
            "waitTime": 5458.678484114408,
            "responseTime": 1436,
            "catchQuestion": "How many red marbles did you actually draw?",
            "catchKey": -1,
            "catchResponse": -1,
            "catchResponseTime": -1,
            "pseudoRound": false,
            "trialTime": 8889
        },
        {
            "exptPart": "trial",
            "trialNumber": 38,
            "roleCurrent": "bullshitter",
            "marblesSampled": 10,
            "probabilityRed": 0.2,
            "drawnRed": 0,
            "reportedDrawn": 0,
            "compLie": -1,
            "compUnifLie": false,
            "compDetect": -0.07042534400000035,
            "callBS": false,
            "playerTrialScore": 0,
            "oppTrialScore": 10,
            "playerTotalScore": 173,
            "oppTotalScore": 147,
            "waitTime": 2442.394882468466,
            "responseTime": 4107,
            "catchQuestion": "How many red marbles did you actually draw?",
            "catchKey": -1,
            "catchResponse": -1,
            "catchResponseTime": -1,
            "pseudoRound": false,
            "trialTime": 10717
        },
        {
            "exptPart": "trial",
            "trialNumber": 39,
            "roleCurrent": "bullshitDetector",
            "marblesSampled": 10,
            "probabilityRed": 0.2,
            "drawnRed": 1,
            "reportedDrawn": 2,
            "compLie": 2,
            "compUnifLie": false,
            "compDetect": -1,
            "callBS": false,
            "playerTrialScore": 8,
            "oppTrialScore": 2,
            "playerTotalScore": 181,
            "oppTotalScore": 149,
            "waitTime": 5587.100974488119,
            "responseTime": 1505,
            "catchQuestion": "How many red marbles did your opponent report drawing?",
            "catchKey": 2,
            "catchResponse": 2,
            "catchResponseTime": 4951,
            "pseudoRound": false,
            "trialTime": 14053
        },
        {
            "exptPart": "trial",
            "trialNumber": 40,
            "roleCurrent": "bullshitter",
            "marblesSampled": 10,
            "probabilityRed": 0.2,
            "drawnRed": 0,
            "reportedDrawn": 0,
            "compLie": -1,
            "compUnifLie": false,
            "compDetect": -0.07042534400000035,
            "callBS": false,
            "playerTrialScore": 0,
            "oppTrialScore": 10,
            "playerTotalScore": 181,
            "oppTotalScore": 159,
            "waitTime": 2602.9883265168646,
            "responseTime": 2786,
            "catchQuestion": "How many red marbles did your opponent report drawing?",
            "catchKey": -1,
            "catchResponse": -1,
            "catchResponseTime": -1,
            "pseudoRound": false,
            "trialTime": 10256
        },
        {
            "exptPart": "trial",
            "trialNumber": 41,
            "roleCurrent": "bullshitDetector",
            "marblesSampled": 10,
            "probabilityRed": 0.2,
            "drawnRed": 3,
            "reportedDrawn": 3,
            "compLie": 3,
            "compUnifLie": false,
            "compDetect": -1,
            "callBS": false,
            "playerTrialScore": 7,
            "oppTrialScore": 3,
            "playerTotalScore": 188,
            "oppTotalScore": 162,
            "waitTime": 6409.484428653822,
            "responseTime": 2473,
            "catchQuestion": "How many red marbles did your opponent report drawing?",
            "catchKey": -1,
            "catchResponse": -1,
            "catchResponseTime": -1,
            "pseudoRound": false,
            "trialTime": 10828
        },
        {
            "exptPart": "trial",
            "trialNumber": 42,
            "roleCurrent": "bullshitter",
            "marblesSampled": 10,
            "probabilityRed": 0.2,
            "drawnRed": 2,
            "reportedDrawn": 2,
            "compLie": -1,
            "compUnifLie": false,
            "compDetect": 0.5,
            "callBS": false,
            "playerTrialScore": 2,
            "oppTrialScore": 8,
            "playerTotalScore": 190,
            "oppTotalScore": 170,
            "waitTime": 2570.608034618483,
            "responseTime": 14358,
            "catchQuestion": "How many red marbles did your opponent report drawing?",
            "catchKey": -1,
            "catchResponse": -1,
            "catchResponseTime": -1,
            "pseudoRound": true,
            "trialTime": 31930
        },
        {
            "exptPart": "trial",
            "trialNumber": 43,
            "roleCurrent": "bullshitDetector",
            "marblesSampled": 10,
            "probabilityRed": 0.2,
            "drawnRed": 2,
            "reportedDrawn": 2,
            "compLie": 2,
            "compUnifLie": false,
            "compDetect": -1,
            "callBS": false,
            "playerTrialScore": 8,
            "oppTrialScore": 2,
            "playerTotalScore": 198,
            "oppTotalScore": 172,
            "waitTime": 5648.439360525383,
            "responseTime": 9544,
            "catchQuestion": "How many red marbles did your opponent report drawing?",
            "catchKey": -1,
            "catchResponse": -1,
            "catchResponseTime": -1,
            "pseudoRound": false,
            "trialTime": 16997
        },
        {
            "exptPart": "trial",
            "trialNumber": 44,
            "roleCurrent": "bullshitter",
            "marblesSampled": 10,
            "probabilityRed": 0.2,
            "drawnRed": 1,
            "reportedDrawn": 1,
            "compLie": -1,
            "compUnifLie": false,
            "compDetect": 0.1980101119999998,
            "callBS": false,
            "playerTrialScore": 1,
            "oppTrialScore": 9,
            "playerTotalScore": 199,
            "oppTotalScore": 181,
            "waitTime": 2444.0326538870268,
            "responseTime": 3095,
            "catchQuestion": "How many red marbles did your opponent report drawing?",
            "catchKey": -1,
            "catchResponse": -1,
            "catchResponseTime": -1,
            "pseudoRound": false,
            "trialTime": 10404
        },
        {
            "exptPart": "trial",
            "trialNumber": 45,
            "roleCurrent": "bullshitDetector",
            "marblesSampled": 10,
            "probabilityRed": 0.2,
            "drawnRed": 4,
            "reportedDrawn": 4,
            "compLie": 2,
            "compUnifLie": false,
            "compDetect": -1,
            "callBS": false,
            "playerTrialScore": 6,
            "oppTrialScore": 4,
            "playerTotalScore": 205,
            "oppTotalScore": 185,
            "waitTime": 7409.403870989533,
            "responseTime": 12293,
            "catchQuestion": "How many red marbles did your opponent report drawing?",
            "catchKey": 4,
            "catchResponse": 4,
            "catchResponseTime": 3476,
            "pseudoRound": false,
            "trialTime": 24483
        },
        {
            "exptPart": "trial",
            "trialNumber": 46,
            "roleCurrent": "bullshitter",
            "marblesSampled": 10,
            "probabilityRed": 0.2,
            "drawnRed": 1,
            "reportedDrawn": 1,
            "compLie": -1,
            "compUnifLie": false,
            "compDetect": 0.1980101119999998,
            "callBS": true,
            "playerTrialScore": 1,
            "oppTrialScore": 4,
            "playerTotalScore": 206,
            "oppTotalScore": 189,
            "waitTime": 2245.179855433862,
            "responseTime": 2559,
            "catchQuestion": "How many red marbles did your opponent report drawing?",
            "catchKey": -1,
            "catchResponse": -1,
            "catchResponseTime": -1,
            "pseudoRound": false,
            "trialTime": 11158
        },
        {
            "exptPart": "trial",
            "trialNumber": 47,
            "roleCurrent": "bullshitDetector",
            "marblesSampled": 10,
            "probabilityRed": 0.2,
            "drawnRed": 2,
            "reportedDrawn": 2,
            "compLie": 1,
            "compUnifLie": false,
            "compDetect": -1,
            "callBS": false,
            "playerTrialScore": 8,
            "oppTrialScore": 2,
            "playerTotalScore": 214,
            "oppTotalScore": 191,
            "waitTime": 6347.593407467064,
            "responseTime": 6393,
            "catchQuestion": "How many red marbles did your opponent report drawing?",
            "catchKey": -1,
            "catchResponse": -1,
            "catchResponseTime": -1,
            "pseudoRound": false,
            "trialTime": 14451
        },
        {
            "exptPart": "trial",
            "trialNumber": 48,
            "roleCurrent": "bullshitter",
            "marblesSampled": 10,
            "probabilityRed": 0.2,
            "drawnRed": 1,
            "reportedDrawn": 1,
            "compLie": -1,
            "compUnifLie": false,
            "compDetect": 0.1980101119999998,
            "callBS": false,
            "playerTrialScore": 1,
            "oppTrialScore": 9,
            "playerTotalScore": 215,
            "oppTotalScore": 200,
            "waitTime": 2129.8553830742585,
            "responseTime": 6321,
            "catchQuestion": "How many red marbles did your opponent report drawing?",
            "catchKey": -1,
            "catchResponse": -1,
            "catchResponseTime": -1,
            "pseudoRound": false,
            "trialTime": 14387
        },
        {
            "exptPart": "trial",
            "trialNumber": 49,
            "roleCurrent": "bullshitDetector",
            "marblesSampled": 10,
            "probabilityRed": 0.2,
            "drawnRed": 2,
            "reportedDrawn": 6,
            "compLie": -1,
            "compUnifLie": true,
            "compDetect": 0.1980101119999998,
            "callBS": false,
            "playerTrialScore": 4,
            "oppTrialScore": 6,
            "playerTotalScore": 219,
            "oppTotalScore": 206,
            "waitTime": 6450.885960743495,
            "responseTime": 4747,
            "catchQuestion": "How many red marbles did your opponent report drawing?",
            "catchKey": -1,
            "catchResponse": -1,
            "catchResponseTime": -1,
            "pseudoRound": false,
            "trialTime": 13593
        },
        {
            "exptPart": "trial",
            "trialNumber": 50,
            "roleCurrent": "bullshitter",
            "marblesSampled": 10,
            "probabilityRed": 0.2,
            "drawnRed": 2,
            "reportedDrawn": 2,
            "compLie": -1,
            "compUnifLie": false,
            "compDetect": 0.5,
            "callBS": false,
            "playerTrialScore": 2,
            "oppTrialScore": 8,
            "playerTotalScore": 221,
            "oppTotalScore": 214,
            "waitTime": 2522.4011477800855,
            "responseTime": 10074,
            "catchQuestion": "How many red marbles did your opponent report drawing?",
            "catchKey": -1,
            "catchResponse": -1,
            "catchResponseTime": -1,
            "pseudoRound": false,
            "trialTime": 24879
        },
        {
            "exptPart": "trial",
            "trialNumber": 51,
            "roleCurrent": "bullshitDetector",
            "marblesSampled": 10,
            "probabilityRed": 0.2,
            "drawnRed": 0,
            "reportedDrawn": 4,
            "compLie": -1,
            "compUnifLie": false,
            "compDetect": 0.5,
            "callBS": false,
            "playerTrialScore": 6,
            "oppTrialScore": 4,
            "playerTotalScore": 227,
            "oppTotalScore": 218,
            "waitTime": 6406.299129039653,
            "responseTime": 876,
            "catchQuestion": "How many red marbles did your opponent report drawing?",
            "catchKey": -1,
            "catchResponse": -1,
            "catchResponseTime": -1,
            "pseudoRound": true,
            "trialTime": 9553
        },
        {
            "exptPart": "trial",
            "trialNumber": 52,
            "roleCurrent": "bullshitter",
            "marblesSampled": 10,
            "probabilityRed": 0.2,
            "drawnRed": 2,
            "reportedDrawn": 2,
            "compLie": -1,
            "compUnifLie": false,
            "compDetect": 0.5,
            "callBS": false,
            "playerTrialScore": 2,
            "oppTrialScore": 8,
            "playerTotalScore": 229,
            "oppTotalScore": 226,
            "waitTime": 2170.13551953657,
            "responseTime": 2957,
            "catchQuestion": "How many red marbles did your opponent report drawing?",
            "catchKey": -1,
            "catchResponse": -1,
            "catchResponseTime": -1,
            "pseudoRound": false,
            "trialTime": 20429
        },
        {
            "exptPart": "trial",
            "trialNumber": 53,
            "roleCurrent": "bullshitDetector",
            "marblesSampled": 10,
            "probabilityRed": 0.2,
            "drawnRed": 2,
            "reportedDrawn": 1,
            "compLie": -1,
            "compUnifLie": true,
            "compDetect": 0.5,
            "callBS": false,
            "playerTrialScore": 9,
            "oppTrialScore": 1,
            "playerTotalScore": 238,
            "oppTotalScore": 227,
            "waitTime": 6798.748578696999,
            "responseTime": 2445,
            "catchQuestion": "How many red marbles did your opponent report drawing?",
            "catchKey": -1,
            "catchResponse": -1,
            "catchResponseTime": -1,
            "pseudoRound": false,
            "trialTime": 11407
        },
        {
            "exptPart": "trial",
            "trialNumber": 54,
            "roleCurrent": "bullshitter",
            "marblesSampled": 10,
            "probabilityRed": 0.2,
            "drawnRed": 3,
            "reportedDrawn": 3,
            "compLie": -1,
            "compUnifLie": false,
            "compDetect": 0.7013265920000001,
            "callBS": true,
            "playerTrialScore": 3,
            "oppTrialScore": 2,
            "playerTotalScore": 241,
            "oppTotalScore": 229,
            "waitTime": 2417.5179131329996,
            "responseTime": 2494,
            "catchQuestion": "How many red marbles did your opponent report drawing?",
            "catchKey": -1,
            "catchResponse": -1,
            "catchResponseTime": -1,
            "pseudoRound": false,
            "trialTime": 12198
        },
        {
            "exptPart": "trial",
            "trialNumber": 55,
            "roleCurrent": "bullshitDetector",
            "marblesSampled": 10,
            "probabilityRed": 0.2,
            "drawnRed": 1,
            "reportedDrawn": 2,
            "compLie": -1,
            "compUnifLie": false,
            "compDetect": 0.7013265920000001,
            "callBS": false,
            "playerTrialScore": 8,
            "oppTrialScore": 2,
            "playerTotalScore": 249,
            "oppTotalScore": 231,
            "waitTime": 7119.597361490751,
            "responseTime": 1282,
            "catchQuestion": "How many red marbles did your opponent report drawing?",
            "catchKey": -1,
            "catchResponse": -1,
            "catchResponseTime": -1,
            "pseudoRound": true,
            "trialTime": 10373
        },
        {
            "exptPart": "trial",
            "trialNumber": 56,
            "roleCurrent": "bullshitter",
            "marblesSampled": 10,
            "probabilityRed": 0.2,
            "drawnRed": 2,
            "reportedDrawn": 2,
            "compLie": -1,
            "compUnifLie": false,
            "compDetect": 0.5,
            "callBS": true,
            "playerTrialScore": 2,
            "oppTrialScore": 3,
            "playerTotalScore": 251,
            "oppTotalScore": 234,
            "waitTime": 3008.6824340759167,
            "responseTime": 3466,
            "catchQuestion": "How many red marbles did your opponent report drawing?",
            "catchKey": -1,
            "catchResponse": -1,
            "catchResponseTime": -1,
            "pseudoRound": false,
            "trialTime": 14995
        },
        {
            "exptPart": "trial",
            "trialNumber": 57,
            "roleCurrent": "bullshitDetector",
            "marblesSampled": 10,
            "probabilityRed": 0.2,
            "drawnRed": 2,
            "reportedDrawn": 3,
            "compLie": 3,
            "compUnifLie": false,
            "compDetect": -1,
            "callBS": false,
            "playerTrialScore": 7,
            "oppTrialScore": 3,
            "playerTotalScore": 258,
            "oppTotalScore": 237,
            "waitTime": 6204.161635786251,
            "responseTime": 1850,
            "catchQuestion": "How many red marbles did your opponent report drawing?",
            "catchKey": -1,
            "catchResponse": -1,
            "catchResponseTime": -1,
            "pseudoRound": false,
            "trialTime": 9579
        },
        {
            "exptPart": "trial",
            "trialNumber": 58,
            "roleCurrent": "bullshitter",
            "marblesSampled": 10,
            "probabilityRed": 0.2,
            "drawnRed": 1,
            "reportedDrawn": 1,
            "compLie": -1,
            "compUnifLie": false,
            "compDetect": 0.1980101119999998,
            "callBS": false,
            "playerTrialScore": 1,
            "oppTrialScore": 9,
            "playerTotalScore": 259,
            "oppTotalScore": 246,
            "waitTime": 2607.8140723409247,
            "responseTime": 3524,
            "catchQuestion": "How many red marbles did you actually draw?",
            "catchKey": 1,
            "catchResponse": 2,
            "catchResponseTime": 3474,
            "pseudoRound": false,
            "trialTime": 18139
        },
        {
            "exptPart": "trial",
            "trialNumber": 59,
            "roleCurrent": "bullshitDetector",
            "marblesSampled": 10,
            "probabilityRed": 0.2,
            "drawnRed": 1,
            "reportedDrawn": 3,
            "compLie": 3,
            "compUnifLie": false,
            "compDetect": -1,
            "callBS": false,
            "playerTrialScore": 7,
            "oppTrialScore": 3,
            "playerTotalScore": 266,
            "oppTotalScore": 249,
            "waitTime": 6851.29666722283,
            "responseTime": 21993,
            "catchQuestion": "How many red marbles did you actually draw?",
            "catchKey": -1,
            "catchResponse": -1,
            "catchResponseTime": -1,
            "pseudoRound": false,
            "trialTime": 30565
        },
        {
            "exptPart": "trial",
            "trialNumber": 60,
            "roleCurrent": "bullshitter",
            "marblesSampled": 10,
            "probabilityRed": 0.2,
            "drawnRed": 7,
            "reportedDrawn": 7,
            "compLie": -1,
            "compUnifLie": false,
            "compDetect": 0.8221225472000001,
            "callBS": true,
            "playerTrialScore": 7,
            "oppTrialScore": -2,
            "playerTotalScore": 273,
            "oppTotalScore": 247,
            "waitTime": 2950.157816414091,
            "responseTime": 6067,
            "catchQuestion": "How many red marbles did you actually draw?",
            "catchKey": -1,
            "catchResponse": -1,
            "catchResponseTime": -1,
            "pseudoRound": true,
            "trialTime": 26973
        },
        {
            "exptPart": "trial",
            "trialNumber": 61,
            "roleCurrent": "bullshitDetector",
            "marblesSampled": 10,
            "probabilityRed": 0.2,
            "drawnRed": 3,
            "reportedDrawn": 1,
            "compLie": -1,
            "compUnifLie": false,
            "compDetect": 0.8221225472000001,
            "callBS": false,
            "playerTrialScore": 9,
            "oppTrialScore": 1,
            "playerTotalScore": 282,
            "oppTotalScore": 248,
            "waitTime": 5467.898384828108,
            "responseTime": 1704,
            "catchQuestion": "How many red marbles did you actually draw?",
            "catchKey": -1,
            "catchResponse": -1,
            "catchResponseTime": -1,
            "pseudoRound": true,
            "trialTime": 12479
        },
        {
            "exptPart": "trial",
            "trialNumber": 62,
            "roleCurrent": "bullshitter",
            "marblesSampled": 10,
            "probabilityRed": 0.2,
            "drawnRed": 1,
            "reportedDrawn": 1,
            "compLie": -1,
            "compUnifLie": false,
            "compDetect": 0.1980101119999998,
            "callBS": false,
            "playerTrialScore": 1,
            "oppTrialScore": 9,
            "playerTotalScore": 283,
            "oppTotalScore": 257,
            "waitTime": 2242.893762307265,
            "responseTime": 2592,
            "catchQuestion": "How many red marbles did you actually draw?",
            "catchKey": 1,
            "catchResponse": 0,
            "catchResponseTime": 3005,
            "pseudoRound": false,
            "trialTime": 54576
        },
        {
            "exptPart": "trial",
            "trialNumber": 63,
            "roleCurrent": "bullshitDetector",
            "marblesSampled": 10,
            "probabilityRed": 0.2,
            "drawnRed": 4,
            "reportedDrawn": 4,
            "compLie": 3,
            "compUnifLie": false,
            "compDetect": -1,
            "callBS": false,
            "playerTrialScore": 6,
            "oppTrialScore": 4,
            "playerTotalScore": 289,
            "oppTotalScore": 261,
            "waitTime": 6537.231927701096,
            "responseTime": 2672,
            "catchQuestion": "How many red marbles did you actually draw?",
            "catchKey": -1,
            "catchResponse": -1,
            "catchResponseTime": -1,
            "pseudoRound": false,
            "trialTime": 11125
        },
        {
            "exptPart": "trial",
            "trialNumber": 64,
            "roleCurrent": "bullshitter",
            "marblesSampled": 10,
            "probabilityRed": 0.2,
            "drawnRed": 2,
            "reportedDrawn": 2,
            "compLie": -1,
            "compUnifLie": false,
            "compDetect": 0.5,
            "callBS": true,
            "playerTrialScore": 2,
            "oppTrialScore": 3,
            "playerTotalScore": 291,
            "oppTotalScore": 264,
            "waitTime": 2598.535819061976,
            "responseTime": 5055,
            "catchQuestion": "How many red marbles did you actually draw?",
            "catchKey": -1,
            "catchResponse": -1,
            "catchResponseTime": -1,
            "pseudoRound": false,
            "trialTime": 13378
        },
        {
            "exptPart": "trial",
            "trialNumber": 65,
            "roleCurrent": "bullshitDetector",
            "marblesSampled": 10,
            "probabilityRed": 0.2,
            "drawnRed": 4,
            "reportedDrawn": 4,
            "compLie": 2,
            "compUnifLie": false,
            "compDetect": -1,
            "callBS": false,
            "playerTrialScore": 6,
            "oppTrialScore": 4,
            "playerTotalScore": 297,
            "oppTotalScore": 268,
            "waitTime": 6009.74658107028,
            "responseTime": 1196,
            "catchQuestion": "How many red marbles did you actually draw?",
            "catchKey": -1,
            "catchResponse": -1,
            "catchResponseTime": -1,
            "pseudoRound": false,
            "trialTime": 9185
        },
        {
            "exptPart": "trial",
            "trialNumber": 66,
            "roleCurrent": "bullshitter",
            "marblesSampled": 10,
            "probabilityRed": 0.2,
            "drawnRed": 1,
            "reportedDrawn": 2,
            "compLie": -1,
            "compUnifLie": false,
            "compDetect": 0.5,
            "callBS": false,
            "playerTrialScore": 2,
            "oppTrialScore": 8,
            "playerTotalScore": 299,
            "oppTotalScore": 276,
            "waitTime": 2259.3373537817615,
            "responseTime": 2131,
            "catchQuestion": "How many red marbles did you actually draw?",
            "catchKey": -1,
            "catchResponse": -1,
            "catchResponseTime": -1,
            "pseudoRound": false,
            "trialTime": 14087
        },
        {
            "exptPart": "trial",
            "trialNumber": 67,
            "roleCurrent": "bullshitDetector",
            "marblesSampled": 10,
            "probabilityRed": 0.2,
            "drawnRed": 0,
            "reportedDrawn": 3,
            "compLie": 3,
            "compUnifLie": false,
            "compDetect": -1,
            "callBS": false,
            "playerTrialScore": 7,
            "oppTrialScore": 3,
            "playerTotalScore": 306,
            "oppTotalScore": 279,
            "waitTime": 5455.403389266194,
            "responseTime": 21231,
            "catchQuestion": "How many red marbles did you actually draw?",
            "catchKey": -1,
            "catchResponse": -1,
            "catchResponseTime": -1,
            "pseudoRound": false,
            "trialTime": 28703
        },
        {
            "exptPart": "trial",
            "trialNumber": 68,
            "roleCurrent": "bullshitter",
            "marblesSampled": 10,
            "probabilityRed": 0.2,
            "drawnRed": 2,
            "reportedDrawn": 2,
            "compLie": -1,
            "compUnifLie": false,
            "compDetect": 0.5,
            "callBS": false,
            "playerTrialScore": 2,
            "oppTrialScore": 8,
            "playerTotalScore": 308,
            "oppTotalScore": 287,
            "waitTime": 2200.3445292779734,
            "responseTime": 2738,
            "catchQuestion": "How many red marbles did you actually draw?",
            "catchKey": -1,
            "catchResponse": -1,
            "catchResponseTime": -1,
            "pseudoRound": false,
            "trialTime": 17637
        },
        {
            "exptPart": "trial",
            "trialNumber": 69,
            "roleCurrent": "bullshitDetector",
            "marblesSampled": 10,
            "probabilityRed": 0.2,
            "drawnRed": 1,
            "reportedDrawn": 2,
            "compLie": 2,
            "compUnifLie": false,
            "compDetect": -1,
            "callBS": false,
            "playerTrialScore": 8,
            "oppTrialScore": 2,
            "playerTotalScore": 316,
            "oppTotalScore": 289,
            "waitTime": 5705.362659817173,
            "responseTime": 1314,
            "catchQuestion": "How many red marbles did you actually draw?",
            "catchKey": -1,
            "catchResponse": -1,
            "catchResponseTime": -1,
            "pseudoRound": false,
            "trialTime": 8891
        },
        {
            "exptPart": "trial",
            "trialNumber": 70,
            "roleCurrent": "bullshitter",
            "marblesSampled": 10,
            "probabilityRed": 0.2,
            "drawnRed": 0,
            "reportedDrawn": 1,
            "compLie": -1,
            "compUnifLie": false,
            "compDetect": 0.1980101119999998,
            "callBS": false,
            "playerTrialScore": 1,
            "oppTrialScore": 9,
            "playerTotalScore": 317,
            "oppTotalScore": 298,
            "waitTime": 2546.6237196231195,
            "responseTime": 2852,
            "catchQuestion": "How many red marbles did you actually draw?",
            "catchKey": -1,
            "catchResponse": -1,
            "catchResponseTime": -1,
            "pseudoRound": false,
            "trialTime": 10324
        },
        {
            "exptPart": "trial",
            "trialNumber": 71,
            "roleCurrent": "bullshitDetector",
            "marblesSampled": 10,
            "probabilityRed": 0.2,
            "drawnRed": 2,
            "reportedDrawn": 2,
            "compLie": -1,
            "compUnifLie": true,
            "compDetect": 0.1980101119999998,
            "callBS": false,
            "playerTrialScore": 8,
            "oppTrialScore": 2,
            "playerTotalScore": 325,
            "oppTotalScore": 300,
            "waitTime": 7365.3353907473875,
            "responseTime": 1682,
            "catchQuestion": "How many red marbles did you actually draw?",
            "catchKey": -1,
            "catchResponse": -1,
            "catchResponseTime": -1,
            "pseudoRound": false,
            "trialTime": 10885
        },
        {
            "exptPart": "trial",
            "trialNumber": 72,
            "roleCurrent": "bullshitter",
            "marblesSampled": 10,
            "probabilityRed": 0.2,
            "drawnRed": 4,
            "reportedDrawn": 4,
            "compLie": -1,
            "compUnifLie": false,
            "compDetect": 0.7894069760000002,
            "callBS": false,
            "playerTrialScore": 4,
            "oppTrialScore": 6,
            "playerTotalScore": 329,
            "oppTotalScore": 306,
            "waitTime": 2601.9332876309936,
            "responseTime": 2941,
            "catchQuestion": "How many red marbles did you actually draw?",
            "catchKey": -1,
            "catchResponse": -1,
            "catchResponseTime": -1,
            "pseudoRound": true,
            "trialTime": 10818
        },
        {
            "exptPart": "trial",
            "trialNumber": 73,
            "roleCurrent": "bullshitDetector",
            "marblesSampled": 10,
            "probabilityRed": 0.2,
            "drawnRed": 1,
            "reportedDrawn": 0,
            "compLie": -1,
            "compUnifLie": false,
            "compDetect": 0.7894069760000002,
            "callBS": false,
            "playerTrialScore": 10,
            "oppTrialScore": 0,
            "playerTotalScore": 339,
            "oppTotalScore": 306,
            "waitTime": 5308.088383335311,
            "responseTime": 1147,
            "catchQuestion": "How many red marbles did you actually draw?",
            "catchKey": -1,
            "catchResponse": -1,
            "catchResponseTime": -1,
            "pseudoRound": true,
            "trialTime": 8652
        },
        {
            "exptPart": "trial",
            "trialNumber": 74,
            "roleCurrent": "bullshitter",
            "marblesSampled": 10,
            "probabilityRed": 0.2,
            "drawnRed": 0,
            "reportedDrawn": 2,
            "compLie": -1,
            "compUnifLie": false,
            "compDetect": 0.5,
            "callBS": true,
            "playerTrialScore": -5,
            "oppTrialScore": 5,
            "playerTotalScore": 334,
            "oppTotalScore": 311,
            "waitTime": 2190.0752210811247,
            "responseTime": 8471,
            "catchQuestion": "How many red marbles did you actually draw?",
            "catchKey": -1,
            "catchResponse": -1,
            "catchResponseTime": -1,
            "pseudoRound": false,
            "trialTime": 26809
        },
        {
            "exptPart": "trial",
            "trialNumber": 75,
            "roleCurrent": "bullshitDetector",
            "marblesSampled": 10,
            "probabilityRed": 0.2,
            "drawnRed": 3,
            "reportedDrawn": 3,
            "compLie": 2,
            "compUnifLie": false,
            "compDetect": -1,
            "callBS": false,
            "playerTrialScore": 7,
            "oppTrialScore": 3,
            "playerTotalScore": 341,
            "oppTotalScore": 314,
            "waitTime": 6725.011670523956,
            "responseTime": 4259,
            "catchQuestion": "How many red marbles did you actually draw?",
            "catchKey": -1,
            "catchResponse": -1,
            "catchResponseTime": -1,
            "pseudoRound": false,
            "trialTime": 13383
        },
        {
            "exptPart": "trial",
            "trialNumber": 76,
            "roleCurrent": "bullshitter",
            "marblesSampled": 10,
            "probabilityRed": 0.2,
            "drawnRed": 2,
            "reportedDrawn": 3,
            "compLie": -1,
            "compUnifLie": false,
            "compDetect": 0.7013265920000001,
            "callBS": true,
            "playerTrialScore": -5,
            "oppTrialScore": 5,
            "playerTotalScore": 336,
            "oppTotalScore": 319,
            "waitTime": 2512.4774154611077,
            "responseTime": 2648,
            "catchQuestion": "How many red marbles did you actually draw?",
            "catchKey": 2,
            "catchResponse": 3,
            "catchResponseTime": 3321,
            "pseudoRound": false,
            "trialTime": 17289
        },
        {
            "exptPart": "trial",
            "trialNumber": 77,
            "roleCurrent": "bullshitDetector",
            "marblesSampled": 10,
            "probabilityRed": 0.2,
            "drawnRed": 1,
            "reportedDrawn": 4,
            "compLie": 4,
            "compUnifLie": false,
            "compDetect": -1,
            "callBS": false,
            "playerTrialScore": 6,
            "oppTrialScore": 4,
            "playerTotalScore": 342,
            "oppTotalScore": 323,
            "waitTime": 5392.791372036938,
            "responseTime": 6624,
            "catchQuestion": "How many red marbles did you actually draw?",
            "catchKey": -1,
            "catchResponse": -1,
            "catchResponseTime": -1,
            "pseudoRound": false,
            "trialTime": 13680
        },
        {
            "exptPart": "trial",
            "trialNumber": 78,
            "roleCurrent": "bullshitter",
            "marblesSampled": 10,
            "probabilityRed": 0.2,
            "drawnRed": 0,
            "reportedDrawn": 0,
            "compLie": -1,
            "compUnifLie": false,
            "compDetect": -0.07042534400000035,
            "callBS": false,
            "playerTrialScore": 0,
            "oppTrialScore": 10,
            "playerTotalScore": 342,
            "oppTotalScore": 333,
            "waitTime": 2933.067817254441,
            "responseTime": 6351,
            "catchQuestion": "How many red marbles did you actually draw?",
            "catchKey": -1,
            "catchResponse": -1,
            "catchResponseTime": -1,
            "pseudoRound": false,
            "trialTime": 14803
        },
        {
            "exptPart": "trial",
            "trialNumber": 79,
            "roleCurrent": "bullshitDetector",
            "marblesSampled": 10,
            "probabilityRed": 0.2,
            "drawnRed": 2,
            "reportedDrawn": 8,
            "compLie": -1,
            "compUnifLie": false,
            "compDetect": -0.07042534400000035,
            "callBS": false,
            "playerTrialScore": 2,
            "oppTrialScore": 8,
            "playerTotalScore": 344,
            "oppTotalScore": 341,
            "waitTime": 5889.669497687491,
            "responseTime": 1509,
            "catchQuestion": "How many red marbles did you actually draw?",
            "catchKey": -1,
            "catchResponse": -1,
            "catchResponseTime": -1,
            "pseudoRound": true,
            "trialTime": 13167
        },
        {
            "exptPart": "trial",
            "trialNumber": 80,
            "roleCurrent": "bullshitter",
            "marblesSampled": 10,
            "probabilityRed": 0.2,
            "drawnRed": 10,
            "reportedDrawn": 9,
            "compLie": -1,
            "compUnifLie": false,
            "compDetect": 0.8222003712000001,
            "callBS": false,
            "playerTrialScore": 9,
            "oppTrialScore": 1,
            "playerTotalScore": 353,
            "oppTotalScore": 342,
            "waitTime": 2621.098816741829,
            "responseTime": 15596,
            "catchQuestion": "How many red marbles did you actually draw?",
            "catchKey": -1,
            "catchResponse": -1,
            "catchResponseTime": -1,
            "pseudoRound": true,
            "trialTime": 115530
        },
        {
            "exptPart": "trial",
            "trialNumber": 81,
            "roleCurrent": "bullshitDetector",
            "marblesSampled": 10,
            "probabilityRed": 0.2,
            "drawnRed": 3,
            "reportedDrawn": 3,
            "compLie": 3,
            "compUnifLie": false,
            "compDetect": -1,
            "callBS": false,
            "playerTrialScore": 7,
            "oppTrialScore": 3,
            "playerTotalScore": 360,
            "oppTotalScore": 345,
            "waitTime": 5128.946520553021,
            "responseTime": 2709,
            "catchQuestion": "How many red marbles did you actually draw?",
            "catchKey": -1,
            "catchResponse": -1,
            "catchResponseTime": -1,
            "pseudoRound": false,
            "trialTime": 13267
        },
        {
            "exptPart": "trial",
            "trialNumber": 82,
            "roleCurrent": "bullshitter",
            "marblesSampled": 10,
            "probabilityRed": 0.2,
            "drawnRed": 1,
            "reportedDrawn": 1,
            "compLie": -1,
            "compUnifLie": false,
            "compDetect": 0.1980101119999998,
            "callBS": false,
            "playerTrialScore": 1,
            "oppTrialScore": 9,
            "playerTotalScore": 361,
            "oppTotalScore": 354,
            "waitTime": 2762.5365046916877,
            "responseTime": 2170,
            "catchQuestion": "How many red marbles did you actually draw?",
            "catchKey": -1,
            "catchResponse": -1,
            "catchResponseTime": -1,
            "pseudoRound": false,
            "trialTime": 14313
        },
        {
            "exptPart": "trial",
            "trialNumber": 83,
            "roleCurrent": "bullshitDetector",
            "marblesSampled": 10,
            "probabilityRed": 0.2,
            "drawnRed": 1,
            "reportedDrawn": 1,
            "compLie": 0,
            "compUnifLie": false,
            "compDetect": -1,
            "callBS": false,
            "playerTrialScore": 9,
            "oppTrialScore": 1,
            "playerTotalScore": 370,
            "oppTotalScore": 355,
            "waitTime": 7221.613099368503,
            "responseTime": 1379,
            "catchQuestion": "How many red marbles did you actually draw?",
            "catchKey": -1,
            "catchResponse": -1,
            "catchResponseTime": -1,
            "pseudoRound": false,
            "trialTime": 11008
        },
        {
            "exptPart": "trial",
            "trialNumber": 84,
            "roleCurrent": "bullshitter",
            "marblesSampled": 10,
            "probabilityRed": 0.2,
            "drawnRed": 2,
            "reportedDrawn": 2,
            "compLie": -1,
            "compUnifLie": false,
            "compDetect": 0.5,
            "callBS": true,
            "playerTrialScore": 2,
            "oppTrialScore": 3,
            "playerTotalScore": 372,
            "oppTotalScore": 358,
            "waitTime": 3041.3912090963777,
            "responseTime": 10113,
            "catchQuestion": "How many red marbles did you actually draw?",
            "catchKey": -1,
            "catchResponse": -1,
            "catchResponseTime": -1,
            "pseudoRound": false,
            "trialTime": 19441
        },
        {
            "exptPart": "trial",
            "trialNumber": 85,
            "roleCurrent": "bullshitDetector",
            "marblesSampled": 10,
            "probabilityRed": 0.2,
            "drawnRed": 1,
            "reportedDrawn": 2,
            "compLie": 2,
            "compUnifLie": false,
            "compDetect": -1,
            "callBS": false,
            "playerTrialScore": 8,
            "oppTrialScore": 2,
            "playerTotalScore": 380,
            "oppTotalScore": 360,
            "waitTime": 6058.865270914063,
            "responseTime": 1461,
            "catchQuestion": "How many red marbles did your opponent report drawing?",
            "catchKey": 2,
            "catchResponse": 2,
            "catchResponseTime": 4577,
            "pseudoRound": false,
            "trialTime": 14253
        },
        {
            "exptPart": "trial",
            "trialNumber": 86,
            "roleCurrent": "bullshitter",
            "marblesSampled": 10,
            "probabilityRed": 0.2,
            "drawnRed": 2,
            "reportedDrawn": 2,
            "compLie": -1,
            "compUnifLie": false,
            "compDetect": 0.5,
            "callBS": true,
            "playerTrialScore": 2,
            "oppTrialScore": 3,
            "playerTotalScore": 382,
            "oppTotalScore": 363,
            "waitTime": 2456.5353092354885,
            "responseTime": 3589,
            "catchQuestion": "How many red marbles did your opponent report drawing?",
            "catchKey": -1,
            "catchResponse": -1,
            "catchResponseTime": -1,
            "pseudoRound": false,
            "trialTime": 12822
        },
        {
            "exptPart": "trial",
            "trialNumber": 87,
            "roleCurrent": "bullshitDetector",
            "marblesSampled": 10,
            "probabilityRed": 0.2,
            "drawnRed": 3,
            "reportedDrawn": 6,
            "compLie": -1,
            "compUnifLie": false,
            "compDetect": 0.5,
            "callBS": false,
            "playerTrialScore": 4,
            "oppTrialScore": 6,
            "playerTotalScore": 386,
            "oppTotalScore": 369,
            "waitTime": 6331.672557970038,
            "responseTime": 1488,
            "catchQuestion": "How many red marbles did your opponent report drawing?",
            "catchKey": -1,
            "catchResponse": -1,
            "catchResponseTime": -1,
            "pseudoRound": true,
            "trialTime": 24165
        },
        {
            "exptPart": "trial",
            "trialNumber": 88,
            "roleCurrent": "bullshitter",
            "marblesSampled": 10,
            "probabilityRed": 0.2,
            "drawnRed": 2,
            "reportedDrawn": 2,
            "compLie": -1,
            "compUnifLie": false,
            "compDetect": 0.5,
            "callBS": true,
            "playerTrialScore": 2,
            "oppTrialScore": 3,
            "playerTotalScore": 388,
            "oppTotalScore": 372,
            "waitTime": 2429.9338324419004,
            "responseTime": 3003,
            "catchQuestion": "How many red marbles did your opponent report drawing?",
            "catchKey": -1,
            "catchResponse": -1,
            "catchResponseTime": -1,
            "pseudoRound": false,
            "trialTime": 13993
        },
        {
            "exptPart": "trial",
            "trialNumber": 89,
            "roleCurrent": "bullshitDetector",
            "marblesSampled": 10,
            "probabilityRed": 0.2,
            "drawnRed": 1,
            "reportedDrawn": 2,
            "compLie": 2,
            "compUnifLie": false,
            "compDetect": -1,
            "callBS": false,
            "playerTrialScore": 8,
            "oppTrialScore": 2,
            "playerTotalScore": 396,
            "oppTotalScore": 374,
            "waitTime": 5843.0866124352415,
            "responseTime": 1495,
            "catchQuestion": "How many red marbles did your opponent report drawing?",
            "catchKey": -1,
            "catchResponse": -1,
            "catchResponseTime": -1,
            "pseudoRound": false,
            "trialTime": 8877
        },
        {
            "exptPart": "trial",
            "trialNumber": 90,
            "roleCurrent": "bullshitter",
            "marblesSampled": 10,
            "probabilityRed": 0.2,
            "drawnRed": 4,
            "reportedDrawn": 4,
            "compLie": -1,
            "compUnifLie": false,
            "compDetect": 0.7894069760000002,
            "callBS": true,
            "playerTrialScore": 4,
            "oppTrialScore": 1,
            "playerTotalScore": 400,
            "oppTotalScore": 375,
            "waitTime": 2633.4884002509434,
            "responseTime": 3336,
            "catchQuestion": "How many red marbles did your opponent report drawing?",
            "catchKey": -1,
            "catchResponse": -1,
            "catchResponseTime": -1,
            "pseudoRound": false,
            "trialTime": 13650
        },
        {
            "exptPart": "trial",
            "trialNumber": 91,
            "roleCurrent": "bullshitDetector",
            "marblesSampled": 10,
            "probabilityRed": 0.2,
            "drawnRed": 1,
            "reportedDrawn": 5,
            "compLie": -1,
            "compUnifLie": false,
            "compDetect": 0.7894069760000002,
            "callBS": false,
            "playerTrialScore": 5,
            "oppTrialScore": 5,
            "playerTotalScore": 405,
            "oppTotalScore": 380,
            "waitTime": 7112.39273637056,
            "responseTime": 28711,
            "catchQuestion": "How many red marbles did your opponent report drawing?",
            "catchKey": -1,
            "catchResponse": -1,
            "catchResponseTime": -1,
            "pseudoRound": true,
            "trialTime": 39447
        },
        {
            "exptPart": "trial",
            "trialNumber": 92,
            "roleCurrent": "bullshitter",
            "marblesSampled": 10,
            "probabilityRed": 0.2,
            "drawnRed": 2,
            "reportedDrawn": 2,
            "compLie": -1,
            "compUnifLie": false,
            "compDetect": 0.5,
            "callBS": true,
            "playerTrialScore": 2,
            "oppTrialScore": 3,
            "playerTotalScore": 407,
            "oppTotalScore": 383,
            "waitTime": 2361.8590689846565,
            "responseTime": 3093,
            "catchQuestion": "How many red marbles did your opponent report drawing?",
            "catchKey": -1,
            "catchResponse": -1,
            "catchResponseTime": -1,
            "pseudoRound": false,
            "trialTime": 454372
        },
        {
            "exptPart": "trial",
            "trialNumber": 93,
            "roleCurrent": "bullshitDetector",
            "marblesSampled": 10,
            "probabilityRed": 0.2,
            "drawnRed": 3,
            "reportedDrawn": 10,
            "compLie": -1,
            "compUnifLie": true,
            "compDetect": 0.5,
            "callBS": false,
            "playerTrialScore": 0,
            "oppTrialScore": 10,
            "playerTotalScore": 407,
            "oppTotalScore": 393,
            "waitTime": 6520.237621487104,
            "responseTime": 2584,
            "catchQuestion": "How many red marbles did your opponent report drawing?",
            "catchKey": 10,
            "catchResponse": 10,
            "catchResponseTime": 3314,
            "pseudoRound": false,
            "trialTime": 13903
        },
        {
            "exptPart": "trial",
            "trialNumber": 94,
            "roleCurrent": "bullshitter",
            "marblesSampled": 10,
            "probabilityRed": 0.2,
            "drawnRed": 4,
            "reportedDrawn": 4,
            "compLie": -1,
            "compUnifLie": false,
            "compDetect": 0.7894069760000002,
            "callBS": true,
            "playerTrialScore": 4,
            "oppTrialScore": 1,
            "playerTotalScore": 411,
            "oppTotalScore": 394,
            "waitTime": 3105.3547605293747,
            "responseTime": 2567,
            "catchQuestion": "How many red marbles did your opponent report drawing?",
            "catchKey": -1,
            "catchResponse": -1,
            "catchResponseTime": -1,
            "pseudoRound": false,
            "trialTime": 10297
        },
        {
            "exptPart": "trial",
            "trialNumber": 95,
            "roleCurrent": "bullshitDetector",
            "marblesSampled": 10,
            "probabilityRed": 0.2,
            "drawnRed": 2,
            "reportedDrawn": 2,
            "compLie": 1,
            "compUnifLie": false,
            "compDetect": -1,
            "callBS": false,
            "playerTrialScore": 8,
            "oppTrialScore": 2,
            "playerTotalScore": 419,
            "oppTotalScore": 396,
            "waitTime": 5794.188884426667,
            "responseTime": 2298,
            "catchQuestion": "How many red marbles did your opponent report drawing?",
            "catchKey": -1,
            "catchResponse": -1,
            "catchResponseTime": -1,
            "pseudoRound": false,
            "trialTime": 9987
        },
        {
            "exptPart": "trial",
            "trialNumber": 96,
            "roleCurrent": "bullshitter",
            "marblesSampled": 10,
            "probabilityRed": 0.2,
            "drawnRed": 1,
            "reportedDrawn": 2,
            "compLie": -1,
            "compUnifLie": false,
            "compDetect": 0.5,
            "callBS": false,
            "playerTrialScore": 2,
            "oppTrialScore": 8,
            "playerTotalScore": 421,
            "oppTotalScore": 404,
            "waitTime": 2165.1363109717217,
            "responseTime": 1952,
            "catchQuestion": "How many red marbles did your opponent report drawing?",
            "catchKey": -1,
            "catchResponse": -1,
            "catchResponseTime": -1,
            "pseudoRound": false,
            "trialTime": 19956
        },
        {
            "exptPart": "trial",
            "trialNumber": 97,
            "roleCurrent": "bullshitDetector",
            "marblesSampled": 10,
            "probabilityRed": 0.2,
            "drawnRed": 3,
            "reportedDrawn": 3,
            "compLie": 2,
            "compUnifLie": false,
            "compDetect": -1,
            "callBS": false,
            "playerTrialScore": 7,
            "oppTrialScore": 3,
            "playerTotalScore": 428,
            "oppTotalScore": 407,
            "waitTime": 6073.92268380801,
            "responseTime": 1223,
            "catchQuestion": "How many red marbles did your opponent report drawing?",
            "catchKey": -1,
            "catchResponse": -1,
            "catchResponseTime": -1,
            "pseudoRound": false,
            "trialTime": 13932
        },
        {
            "exptPart": "trial",
            "trialNumber": 98,
            "roleCurrent": "bullshitter",
            "marblesSampled": 10,
            "probabilityRed": 0.2,
            "drawnRed": 8,
            "reportedDrawn": 7,
            "compLie": -1,
            "compUnifLie": false,
            "compDetect": 0.8221225472000001,
            "callBS": true,
            "playerTrialScore": -5,
            "oppTrialScore": 5,
            "playerTotalScore": 423,
            "oppTotalScore": 412,
            "waitTime": 2708.4949186128383,
            "responseTime": 2479,
            "catchQuestion": "How many red marbles did your opponent report drawing?",
            "catchKey": -1,
            "catchResponse": -1,
            "catchResponseTime": -1,
            "pseudoRound": true,
            "trialTime": 26722
        },
        {
            "exptPart": "trial",
            "trialNumber": 99,
            "roleCurrent": "bullshitDetector",
            "marblesSampled": 10,
            "probabilityRed": 0.2,
            "drawnRed": 2,
            "reportedDrawn": 2,
            "compLie": 2,
            "compUnifLie": false,
            "compDetect": -1,
            "callBS": false,
            "playerTrialScore": 8,
            "oppTrialScore": 2,
            "playerTotalScore": 431,
            "oppTotalScore": 414,
            "waitTime": 5177.2360304665,
            "responseTime": 1432,
            "catchQuestion": "How many red marbles did your opponent report drawing?",
            "catchKey": -1,
            "catchResponse": -1,
            "catchResponseTime": -1,
            "pseudoRound": false,
            "trialTime": 8346
        },
        {
            "exptPart": "trial",
            "trialNumber": 100,
            "roleCurrent": "bullshitter",
            "marblesSampled": 10,
            "probabilityRed": 0.2,
            "drawnRed": 3,
            "reportedDrawn": 4,
            "compLie": -1,
            "compUnifLie": false,
            "compDetect": 0.7894069760000002,
            "callBS": true,
            "playerTrialScore": -5,
            "oppTrialScore": 5,
            "playerTotalScore": 426,
            "oppTotalScore": 419,
            "waitTime": 3125.6945774134947,
            "responseTime": 2655,
            "catchQuestion": "How many red marbles did your opponent report drawing?",
            "catchKey": -1,
            "catchResponse": -1,
            "catchResponseTime": -1,
            "pseudoRound": true,
            "trialTime": 16790
        }
    ]
}