{
    "client": {
        "type": "sona",
        "experiment_id": 1505,
        "credit_token": "b20092f9d3b34a378ee654bcc50710ea",
        "survey_code": "37234",
        "sid": "sona-37234",
        "window": {
            "width": 1366,
            "height": 657
        },
        "screen": {
            "width": 1366,
            "height": 768
        },
        "userAgent": "Mozilla\/5.0 (Windows NT 10.0; Win64; x64) AppleWebKit\/537.36 (KHTML, like Gecko) Chrome\/86.0.4240.183 Safari\/537.36",
        "score": 0,
        "bonus": 0
    },
    "expt": {
        "saveURL": "submit.simple.php",
        "trials": 100,
        "practiceTrials": 4,
        "marblesSampled": 10,
        "roles": [
            "bullshitter",
            "bullshitDetector"
        ],
        "roleFirst": "bullshitDetector",
        "allTrialProbs": [
            0.2,
            0.5,
            0.8
        ],
        "occlude": "computer",
        "catchTrials": [
            10,
            9,
            74,
            76,
            28,
            53,
            58,
            45,
            26,
            51,
            37,
            63,
            2,
            55,
            5
        ],
        "pseudo": {
            "2": 9,
            "10": 0,
            "13": 6,
            "19": 7,
            "23": 2,
            "25": 4,
            "32": 8,
            "42": 6,
            "55": 0,
            "56": 1,
            "60": 5,
            "61": 3,
            "70": 4,
            "71": 9,
            "75": 5,
            "77": 8,
            "78": 3,
            "84": 2,
            "93": 10,
            "96": 7,
            "99": 1,
            "100": 10
        },
        "stat": {
            "playerTotalScore": 362,
            "oppTotalScore": 268,
            "truth": 27,
            "truth_noBS": 7,
            "truth_BS": 20,
            "lie": 23,
            "lie_noBS": 12,
            "lie_BS": 11,
            "noBS": 28,
            "noBS_truth": 13,
            "noBS_lie": 15,
            "BS": 22,
            "BS_truth": 12,
            "BS_lie": 10
        },
        "sona": {
            "experiment_id": 1505,
            "credit_token": "b20092f9d3b34a378ee654bcc50710ea"
        },
        "debug": false
    },
    "trials": [
        {
            "exptPart": "practice",
            "trialNumber": 1,
            "roleCurrent": "bullshitter",
            "marblesSampled": 10,
            "asymm": true,
            "probBullshitterRed": 0.5,
            "probBullshitDetectorRed": 0.2,
            "innerRed": 4,
            "outerRed": 71,
            "innerBlue": 16,
            "outerBlue": 59,
            "drawnRed": 1,
            "reportedDrawn": 7,
            "compLie": -1,
            "compUnifLie": false,
            "compDetect": 0.8221225472000001,
            "callBS": true,
            "playerTrialScore": -5,
            "oppTrialScore": 5,
            "playerTotalScore": -5,
            "oppTotalScore": 5,
            "waitTime": 2406.821485128507,
            "responseTime": 12851,
            "catchQuestion": "What was the proportion of red to blue marbles from your perspective?",
            "catchKey": 50,
            "catchResponse": "4",
            "catchResponseTime": 59934,
            "pseudoRound": false,
            "trialTime": 105799
        },
        {
            "exptPart": "practice",
            "trialNumber": 2,
            "roleCurrent": "bullshitDetector",
            "marblesSampled": 10,
            "asymm": false,
            "probBullshitterRed": 0.8,
            "probBullshitDetectorRed": 0.8,
            "innerRed": 16,
            "outerRed": 104,
            "innerBlue": 4,
            "outerBlue": 26,
            "drawnRed": 7,
            "reportedDrawn": 7,
            "compLie": 7,
            "compUnifLie": false,
            "compDetect": -1,
            "callBS": true,
            "playerTrialScore": -2,
            "oppTrialScore": 7,
            "playerTotalScore": -7,
            "oppTotalScore": 12,
            "waitTime": 6868.609551541607,
            "responseTime": 6935,
            "catchQuestion": "How many red marbles did your opponent report drawing?",
            "catchKey": 7,
            "catchResponse": 4,
            "catchResponseTime": 6075,
            "pseudoRound": false,
            "trialTime": 37636
        },
        {
            "exptPart": "practice",
            "trialNumber": 3,
            "roleCurrent": "bullshitter",
            "marblesSampled": 10,
            "asymm": true,
            "probBullshitterRed": 0.8,
            "probBullshitDetectorRed": 0.5,
            "innerRed": 10,
            "outerRed": 110,
            "innerBlue": 10,
            "outerBlue": 20,
            "drawnRed": 8,
            "reportedDrawn": 8,
            "compLie": -1,
            "compUnifLie": false,
            "compDetect": 0.8662109375,
            "callBS": true,
            "playerTrialScore": 8,
            "oppTrialScore": -3,
            "playerTotalScore": 1,
            "oppTotalScore": 9,
            "waitTime": 2954.5603135689507,
            "responseTime": 10072,
            "catchQuestion": "How many red marbles did you actually draw?",
            "catchKey": 8,
            "catchResponse": 8,
            "catchResponseTime": 7205,
            "pseudoRound": false,
            "trialTime": 41161
        },
        {
            "exptPart": "practice",
            "trialNumber": 4,
            "roleCurrent": "bullshitDetector",
            "marblesSampled": 10,
            "asymm": true,
            "probBullshitterRed": 0.8,
            "probBullshitDetectorRed": 0.2,
            "innerRed": 4,
            "outerRed": 116,
            "innerBlue": 16,
            "outerBlue": 14,
            "drawnRed": 9,
            "reportedDrawn": 9,
            "compLie": 1,
            "compUnifLie": false,
            "compDetect": -1,
            "callBS": true,
            "playerTrialScore": -4,
            "oppTrialScore": 9,
            "playerTotalScore": -3,
            "oppTotalScore": 18,
            "waitTime": 5740.522250087812,
            "responseTime": 14055,
            "catchQuestion": "What was the proportion of red to blue marbles from your opponent's perspective?",
            "catchKey": "NA",
            "catchResponse": "21",
            "catchResponseTime": 10326,
            "pseudoRound": false,
            "trialTime": 39205
        },
        {
            "exptPart": "trial",
            "trialNumber": 1,
            "roleCurrent": "bullshitDetector",
            "marblesSampled": 10,
            "asymm": true,
            "probBullshitterRed": 0.8,
            "probBullshitDetectorRed": 0.2,
            "innerRed": 4,
            "outerRed": 116,
            "innerBlue": 16,
            "outerBlue": 14,
            "drawnRed": 7,
            "reportedDrawn": 7,
            "compLie": 3,
            "compUnifLie": false,
            "compDetect": -1,
            "callBS": false,
            "playerTrialScore": 3,
            "oppTrialScore": 7,
            "playerTotalScore": 3,
            "oppTotalScore": 7,
            "waitTime": 5437.271502082247,
            "responseTime": 2757,
            "catchQuestion": "What was the proportion of red to blue marbles from your opponent's perspective?",
            "catchKey": -1,
            "catchResponse": -1,
            "catchResponseTime": -1,
            "pseudoRound": false,
            "trialTime": 13854
        },
        {
            "exptPart": "trial",
            "trialNumber": 2,
            "roleCurrent": "bullshitter",
            "marblesSampled": 10,
            "asymm": false,
            "probBullshitterRed": 0.8,
            "probBullshitDetectorRed": 0.8,
            "innerRed": 16,
            "outerRed": 104,
            "innerBlue": 4,
            "outerBlue": 26,
            "drawnRed": 6,
            "reportedDrawn": 8,
            "compLie": -1,
            "compUnifLie": false,
            "compDetect": 0.5,
            "callBS": true,
            "playerTrialScore": -5,
            "oppTrialScore": 5,
            "playerTotalScore": -2,
            "oppTotalScore": 12,
            "waitTime": 2620.5086697650277,
            "responseTime": 76354,
            "catchQuestion": "What was the proportion of red to blue marbles from your opponent's perspective?",
            "catchKey": -1,
            "catchResponse": -1,
            "catchResponseTime": -1,
            "pseudoRound": false,
            "trialTime": 89570
        },
        {
            "exptPart": "trial",
            "trialNumber": 3,
            "roleCurrent": "bullshitDetector",
            "marblesSampled": 10,
            "asymm": false,
            "probBullshitterRed": 0.5,
            "probBullshitDetectorRed": 0.5,
            "innerRed": 10,
            "outerRed": 65,
            "innerBlue": 10,
            "outerBlue": 65,
            "drawnRed": 6,
            "reportedDrawn": 9,
            "compLie": -1,
            "compUnifLie": false,
            "compDetect": 0.5,
            "callBS": true,
            "playerTrialScore": 5,
            "oppTrialScore": -5,
            "playerTotalScore": 3,
            "oppTotalScore": 7,
            "waitTime": 5664.130951258805,
            "responseTime": 16643,
            "catchQuestion": "What was the proportion of red to blue marbles from your opponent's perspective?",
            "catchKey": "NA",
            "catchResponse": "40",
            "catchResponseTime": 6152,
            "pseudoRound": true,
            "trialTime": 38337
        },
        {
            "exptPart": "trial",
            "trialNumber": 4,
            "roleCurrent": "bullshitter",
            "marblesSampled": 10,
            "asymm": false,
            "probBullshitterRed": 0.5,
            "probBullshitDetectorRed": 0.5,
            "innerRed": 10,
            "outerRed": 65,
            "innerBlue": 10,
            "outerBlue": 65,
            "drawnRed": 6,
            "reportedDrawn": 6,
            "compLie": -1,
            "compUnifLie": false,
            "compDetect": 0.705078125,
            "callBS": true,
            "playerTrialScore": 6,
            "oppTrialScore": -1,
            "playerTotalScore": 9,
            "oppTotalScore": 6,
            "waitTime": 3189.87164266818,
            "responseTime": 57634,
            "catchQuestion": "What was the proportion of red to blue marbles from your opponent's perspective?",
            "catchKey": -1,
            "catchResponse": -1,
            "catchResponseTime": -1,
            "pseudoRound": false,
            "trialTime": 71888
        },
        {
            "exptPart": "trial",
            "trialNumber": 5,
            "roleCurrent": "bullshitDetector",
            "marblesSampled": 10,
            "asymm": true,
            "probBullshitterRed": 0.8,
            "probBullshitDetectorRed": 0.2,
            "innerRed": 4,
            "outerRed": 116,
            "innerBlue": 16,
            "outerBlue": 14,
            "drawnRed": 8,
            "reportedDrawn": 8,
            "compLie": 2,
            "compUnifLie": false,
            "compDetect": -1,
            "callBS": true,
            "playerTrialScore": -3,
            "oppTrialScore": 8,
            "playerTotalScore": 6,
            "oppTotalScore": 14,
            "waitTime": 6351.649029423396,
            "responseTime": 10692,
            "catchQuestion": "What was the proportion of red to blue marbles from your opponent's perspective?",
            "catchKey": -1,
            "catchResponse": -1,
            "catchResponseTime": -1,
            "pseudoRound": false,
            "trialTime": 22527
        },
        {
            "exptPart": "trial",
            "trialNumber": 6,
            "roleCurrent": "bullshitter",
            "marblesSampled": 10,
            "asymm": true,
            "probBullshitterRed": 0.5,
            "probBullshitDetectorRed": 0.2,
            "innerRed": 4,
            "outerRed": 71,
            "innerBlue": 16,
            "outerBlue": 59,
            "drawnRed": 6,
            "reportedDrawn": 6,
            "compLie": -1,
            "compUnifLie": false,
            "compDetect": 0.8213361152000002,
            "callBS": false,
            "playerTrialScore": 6,
            "oppTrialScore": 4,
            "playerTotalScore": 12,
            "oppTotalScore": 18,
            "waitTime": 2700.6174012960887,
            "responseTime": 40779,
            "catchQuestion": "How many red marbles did you actually draw?",
            "catchKey": 6,
            "catchResponse": 6,
            "catchResponseTime": 6976,
            "pseudoRound": false,
            "trialTime": 63761
        },
        {
            "exptPart": "trial",
            "trialNumber": 7,
            "roleCurrent": "bullshitDetector",
            "marblesSampled": 10,
            "asymm": true,
            "probBullshitterRed": 0.5,
            "probBullshitDetectorRed": 0.2,
            "innerRed": 4,
            "outerRed": 71,
            "innerBlue": 16,
            "outerBlue": 59,
            "drawnRed": 3,
            "reportedDrawn": 8,
            "compLie": -1,
            "compUnifLie": true,
            "compDetect": 0.8213361152000002,
            "callBS": true,
            "playerTrialScore": 5,
            "oppTrialScore": -5,
            "playerTotalScore": 17,
            "oppTotalScore": 13,
            "waitTime": 5776.329987368801,
            "responseTime": 5237,
            "catchQuestion": "How many red marbles did you actually draw?",
            "catchKey": -1,
            "catchResponse": -1,
            "catchResponseTime": -1,
            "pseudoRound": false,
            "trialTime": 16976
        },
        {
            "exptPart": "trial",
            "trialNumber": 8,
            "roleCurrent": "bullshitter",
            "marblesSampled": 10,
            "asymm": true,
            "probBullshitterRed": 0.5,
            "probBullshitDetectorRed": 0.2,
            "innerRed": 4,
            "outerRed": 71,
            "innerBlue": 16,
            "outerBlue": 59,
            "drawnRed": 2,
            "reportedDrawn": 3,
            "compLie": -1,
            "compUnifLie": false,
            "compDetect": 0.7013265920000001,
            "callBS": true,
            "playerTrialScore": -5,
            "oppTrialScore": 5,
            "playerTotalScore": 12,
            "oppTotalScore": 18,
            "waitTime": 2918.283438315704,
            "responseTime": 35081,
            "catchQuestion": "How many red marbles did you actually draw?",
            "catchKey": -1,
            "catchResponse": -1,
            "catchResponseTime": -1,
            "pseudoRound": false,
            "trialTime": 50644
        },
        {
            "exptPart": "trial",
            "trialNumber": 9,
            "roleCurrent": "bullshitDetector",
            "marblesSampled": 10,
            "asymm": true,
            "probBullshitterRed": 0.8,
            "probBullshitDetectorRed": 0.2,
            "innerRed": 4,
            "outerRed": 116,
            "innerBlue": 16,
            "outerBlue": 14,
            "drawnRed": 10,
            "reportedDrawn": 10,
            "compLie": 4,
            "compUnifLie": false,
            "compDetect": -1,
            "callBS": true,
            "playerTrialScore": -5,
            "oppTrialScore": 10,
            "playerTotalScore": 7,
            "oppTotalScore": 28,
            "waitTime": 6518.579587686233,
            "responseTime": 4709,
            "catchQuestion": "How many red marbles did you actually draw?",
            "catchKey": -1,
            "catchResponse": -1,
            "catchResponseTime": -1,
            "pseudoRound": false,
            "trialTime": 15230
        },
        {
            "exptPart": "trial",
            "trialNumber": 10,
            "roleCurrent": "bullshitter",
            "marblesSampled": 10,
            "asymm": true,
            "probBullshitterRed": 0.5,
            "probBullshitDetectorRed": 0.8,
            "innerRed": 16,
            "outerRed": 59,
            "innerBlue": 4,
            "outerBlue": 71,
            "drawnRed": 6,
            "reportedDrawn": 9,
            "compLie": -1,
            "compUnifLie": false,
            "compDetect": 0.7684354560000001,
            "callBS": true,
            "playerTrialScore": -5,
            "oppTrialScore": 5,
            "playerTotalScore": 2,
            "oppTotalScore": 33,
            "waitTime": 2872.596707255228,
            "responseTime": 11737,
            "catchQuestion": "What was the proportion of red to blue marbles from your opponent's perspective?",
            "catchKey": 80,
            "catchResponse": "69",
            "catchResponseTime": 12005,
            "pseudoRound": false,
            "trialTime": 38596
        },
        {
            "exptPart": "trial",
            "trialNumber": 11,
            "roleCurrent": "bullshitDetector",
            "marblesSampled": 10,
            "asymm": true,
            "probBullshitterRed": 0.8,
            "probBullshitDetectorRed": 0.2,
            "innerRed": 4,
            "outerRed": 116,
            "innerBlue": 16,
            "outerBlue": 14,
            "drawnRed": 8,
            "reportedDrawn": 0,
            "compLie": -1,
            "compUnifLie": false,
            "compDetect": 0.7684354560000001,
            "callBS": true,
            "playerTrialScore": 5,
            "oppTrialScore": -5,
            "playerTotalScore": 7,
            "oppTotalScore": 28,
            "waitTime": 5858.395777047385,
            "responseTime": 12279,
            "catchQuestion": "What was the proportion of red to blue marbles from your opponent's perspective?",
            "catchKey": "NA",
            "catchResponse": "17",
            "catchResponseTime": 12368,
            "pseudoRound": true,
            "trialTime": 33703
        },
        {
            "exptPart": "trial",
            "trialNumber": 12,
            "roleCurrent": "bullshitter",
            "marblesSampled": 10,
            "asymm": false,
            "probBullshitterRed": 0.8,
            "probBullshitDetectorRed": 0.8,
            "innerRed": 16,
            "outerRed": 104,
            "innerBlue": 4,
            "outerBlue": 26,
            "drawnRed": 9,
            "reportedDrawn": 9,
            "compLie": -1,
            "compUnifLie": false,
            "compDetect": 0.7684354560000001,
            "callBS": true,
            "playerTrialScore": 9,
            "oppTrialScore": -4,
            "playerTotalScore": 16,
            "oppTotalScore": 24,
            "waitTime": 2696.5205832974034,
            "responseTime": 21254,
            "catchQuestion": "What was the proportion of red to blue marbles from your opponent's perspective?",
            "catchKey": -1,
            "catchResponse": -1,
            "catchResponseTime": -1,
            "pseudoRound": false,
            "trialTime": 38612
        },
        {
            "exptPart": "trial",
            "trialNumber": 13,
            "roleCurrent": "bullshitDetector",
            "marblesSampled": 10,
            "asymm": false,
            "probBullshitterRed": 0.2,
            "probBullshitDetectorRed": 0.2,
            "innerRed": 4,
            "outerRed": 26,
            "innerBlue": 16,
            "outerBlue": 104,
            "drawnRed": 1,
            "reportedDrawn": 5,
            "compLie": 5,
            "compUnifLie": false,
            "compDetect": -1,
            "callBS": true,
            "playerTrialScore": 5,
            "oppTrialScore": -5,
            "playerTotalScore": 21,
            "oppTotalScore": 19,
            "waitTime": 6402.07484658624,
            "responseTime": 22458,
            "catchQuestion": "What was the proportion of red to blue marbles from your opponent's perspective?",
            "catchKey": -1,
            "catchResponse": -1,
            "catchResponseTime": -1,
            "pseudoRound": false,
            "trialTime": 32426
        },
        {
            "exptPart": "trial",
            "trialNumber": 14,
            "roleCurrent": "bullshitter",
            "marblesSampled": 10,
            "asymm": true,
            "probBullshitterRed": 0.8,
            "probBullshitDetectorRed": 0.5,
            "innerRed": 10,
            "outerRed": 110,
            "innerBlue": 10,
            "outerBlue": 20,
            "drawnRed": 6,
            "reportedDrawn": 5,
            "compLie": -1,
            "compUnifLie": false,
            "compDetect": 0.5,
            "callBS": false,
            "playerTrialScore": 5,
            "oppTrialScore": 5,
            "playerTotalScore": 26,
            "oppTotalScore": 24,
            "waitTime": 2087.2590080723585,
            "responseTime": 45735,
            "catchQuestion": "What was the proportion of red to blue marbles from your opponent's perspective?",
            "catchKey": -1,
            "catchResponse": -1,
            "catchResponseTime": -1,
            "pseudoRound": true,
            "trialTime": 58765
        },
        {
            "exptPart": "trial",
            "trialNumber": 15,
            "roleCurrent": "bullshitDetector",
            "marblesSampled": 10,
            "asymm": false,
            "probBullshitterRed": 0.2,
            "probBullshitDetectorRed": 0.2,
            "innerRed": 4,
            "outerRed": 26,
            "innerBlue": 16,
            "outerBlue": 104,
            "drawnRed": 0,
            "reportedDrawn": 0,
            "compLie": -1,
            "compUnifLie": true,
            "compDetect": 0.5,
            "callBS": true,
            "playerTrialScore": 5,
            "oppTrialScore": 0,
            "playerTotalScore": 31,
            "oppTotalScore": 24,
            "waitTime": 6469.580941575305,
            "responseTime": 12063,
            "catchQuestion": "What was the proportion of red to blue marbles from your opponent's perspective?",
            "catchKey": -1,
            "catchResponse": -1,
            "catchResponseTime": -1,
            "pseudoRound": false,
            "trialTime": 35316
        },
        {
            "exptPart": "trial",
            "trialNumber": 16,
            "roleCurrent": "bullshitter",
            "marblesSampled": 10,
            "asymm": true,
            "probBullshitterRed": 0.8,
            "probBullshitDetectorRed": 0.5,
            "innerRed": 10,
            "outerRed": 110,
            "innerBlue": 10,
            "outerBlue": 20,
            "drawnRed": 10,
            "reportedDrawn": 10,
            "compLie": -1,
            "compUnifLie": false,
            "compDetect": 0.876953125,
            "callBS": true,
            "playerTrialScore": 10,
            "oppTrialScore": -5,
            "playerTotalScore": 41,
            "oppTotalScore": 19,
            "waitTime": 2365.2452497747054,
            "responseTime": 7656,
            "catchQuestion": "What was the proportion of red to blue marbles from your opponent's perspective?",
            "catchKey": -1,
            "catchResponse": -1,
            "catchResponseTime": -1,
            "pseudoRound": false,
            "trialTime": 23442
        },
        {
            "exptPart": "trial",
            "trialNumber": 17,
            "roleCurrent": "bullshitDetector",
            "marblesSampled": 10,
            "asymm": false,
            "probBullshitterRed": 0.5,
            "probBullshitDetectorRed": 0.5,
            "innerRed": 10,
            "outerRed": 65,
            "innerBlue": 10,
            "outerBlue": 65,
            "drawnRed": 8,
            "reportedDrawn": 8,
            "compLie": 4,
            "compUnifLie": false,
            "compDetect": -1,
            "callBS": false,
            "playerTrialScore": 2,
            "oppTrialScore": 8,
            "playerTotalScore": 43,
            "oppTotalScore": 27,
            "waitTime": 5368.540600493023,
            "responseTime": 11312,
            "catchQuestion": "What was the proportion of red to blue marbles from your opponent's perspective?",
            "catchKey": -1,
            "catchResponse": -1,
            "catchResponseTime": -1,
            "pseudoRound": false,
            "trialTime": 19989
        },
        {
            "exptPart": "trial",
            "trialNumber": 18,
            "roleCurrent": "bullshitter",
            "marblesSampled": 10,
            "asymm": false,
            "probBullshitterRed": 0.5,
            "probBullshitDetectorRed": 0.5,
            "innerRed": 10,
            "outerRed": 65,
            "innerBlue": 10,
            "outerBlue": 65,
            "drawnRed": 7,
            "reportedDrawn": 7,
            "compLie": -1,
            "compUnifLie": false,
            "compDetect": 0.822265625,
            "callBS": true,
            "playerTrialScore": 7,
            "oppTrialScore": -2,
            "playerTotalScore": 50,
            "oppTotalScore": 25,
            "waitTime": 2184.1283195038145,
            "responseTime": 15925,
            "catchQuestion": "What was the proportion of red to blue marbles from your opponent's perspective?",
            "catchKey": -1,
            "catchResponse": -1,
            "catchResponseTime": -1,
            "pseudoRound": false,
            "trialTime": 37588
        },
        {
            "exptPart": "trial",
            "trialNumber": 19,
            "roleCurrent": "bullshitDetector",
            "marblesSampled": 10,
            "asymm": false,
            "probBullshitterRed": 0.5,
            "probBullshitDetectorRed": 0.5,
            "innerRed": 10,
            "outerRed": 65,
            "innerBlue": 10,
            "outerBlue": 65,
            "drawnRed": 5,
            "reportedDrawn": 10,
            "compLie": -1,
            "compUnifLie": true,
            "compDetect": 0.822265625,
            "callBS": false,
            "playerTrialScore": 0,
            "oppTrialScore": 10,
            "playerTotalScore": 50,
            "oppTotalScore": 35,
            "waitTime": 6455.7518987804,
            "responseTime": 15199,
            "catchQuestion": "What was the proportion of red to blue marbles from your opponent's perspective?",
            "catchKey": -1,
            "catchResponse": -1,
            "catchResponseTime": -1,
            "pseudoRound": false,
            "trialTime": 24785
        },
        {
            "exptPart": "trial",
            "trialNumber": 20,
            "roleCurrent": "bullshitter",
            "marblesSampled": 10,
            "asymm": true,
            "probBullshitterRed": 0.8,
            "probBullshitDetectorRed": 0.2,
            "innerRed": 4,
            "outerRed": 116,
            "innerBlue": 16,
            "outerBlue": 14,
            "drawnRed": 7,
            "reportedDrawn": 7,
            "compLie": -1,
            "compUnifLie": false,
            "compDetect": 0.8221225472000001,
            "callBS": true,
            "playerTrialScore": 7,
            "oppTrialScore": -2,
            "playerTotalScore": 57,
            "oppTotalScore": 33,
            "waitTime": 2839.2752294668617,
            "responseTime": 12641,
            "catchQuestion": "What was the proportion of red to blue marbles from your opponent's perspective?",
            "catchKey": -1,
            "catchResponse": -1,
            "catchResponseTime": -1,
            "pseudoRound": true,
            "trialTime": 27441
        },
        {
            "exptPart": "trial",
            "trialNumber": 21,
            "roleCurrent": "bullshitDetector",
            "marblesSampled": 10,
            "asymm": true,
            "probBullshitterRed": 0.8,
            "probBullshitDetectorRed": 0.5,
            "innerRed": 10,
            "outerRed": 110,
            "innerBlue": 10,
            "outerBlue": 20,
            "drawnRed": 8,
            "reportedDrawn": 8,
            "compLie": 4,
            "compUnifLie": false,
            "compDetect": -1,
            "callBS": false,
            "playerTrialScore": 2,
            "oppTrialScore": 8,
            "playerTotalScore": 59,
            "oppTotalScore": 41,
            "waitTime": 6823.909319719811,
            "responseTime": 9729,
            "catchQuestion": "What was the proportion of red to blue marbles from your opponent's perspective?",
            "catchKey": -1,
            "catchResponse": -1,
            "catchResponseTime": -1,
            "pseudoRound": false,
            "trialTime": 21182
        },
        {
            "exptPart": "trial",
            "trialNumber": 22,
            "roleCurrent": "bullshitter",
            "marblesSampled": 10,
            "asymm": true,
            "probBullshitterRed": 0.5,
            "probBullshitDetectorRed": 0.2,
            "innerRed": 4,
            "outerRed": 71,
            "innerBlue": 16,
            "outerBlue": 59,
            "drawnRed": 6,
            "reportedDrawn": 6,
            "compLie": -1,
            "compUnifLie": false,
            "compDetect": 0.8213361152000002,
            "callBS": true,
            "playerTrialScore": 6,
            "oppTrialScore": -1,
            "playerTotalScore": 65,
            "oppTotalScore": 40,
            "waitTime": 3144.0857132231395,
            "responseTime": 20078,
            "catchQuestion": "What was the proportion of red to blue marbles from your opponent's perspective?",
            "catchKey": -1,
            "catchResponse": -1,
            "catchResponseTime": -1,
            "pseudoRound": false,
            "trialTime": 38729
        },
        {
            "exptPart": "trial",
            "trialNumber": 23,
            "roleCurrent": "bullshitDetector",
            "marblesSampled": 10,
            "asymm": false,
            "probBullshitterRed": 0.2,
            "probBullshitDetectorRed": 0.2,
            "innerRed": 4,
            "outerRed": 26,
            "innerBlue": 16,
            "outerBlue": 104,
            "drawnRed": 2,
            "reportedDrawn": 3,
            "compLie": -1,
            "compUnifLie": true,
            "compDetect": 0.8213361152000002,
            "callBS": false,
            "playerTrialScore": 7,
            "oppTrialScore": 3,
            "playerTotalScore": 72,
            "oppTotalScore": 43,
            "waitTime": 7469.824497251522,
            "responseTime": 49238,
            "catchQuestion": "What was the proportion of red to blue marbles from your opponent's perspective?",
            "catchKey": -1,
            "catchResponse": -1,
            "catchResponseTime": -1,
            "pseudoRound": false,
            "trialTime": 59389
        },
        {
            "exptPart": "trial",
            "trialNumber": 24,
            "roleCurrent": "bullshitter",
            "marblesSampled": 10,
            "asymm": true,
            "probBullshitterRed": 0.8,
            "probBullshitDetectorRed": 0.5,
            "innerRed": 10,
            "outerRed": 110,
            "innerBlue": 10,
            "outerBlue": 20,
            "drawnRed": 2,
            "reportedDrawn": 2,
            "compLie": -1,
            "compUnifLie": false,
            "compDetect": -0.068359375,
            "callBS": false,
            "playerTrialScore": 2,
            "oppTrialScore": 8,
            "playerTotalScore": 74,
            "oppTotalScore": 51,
            "waitTime": 2220.1106310253635,
            "responseTime": 4839,
            "catchQuestion": "What was the proportion of red to blue marbles from your opponent's perspective?",
            "catchKey": -1,
            "catchResponse": -1,
            "catchResponseTime": -1,
            "pseudoRound": true,
            "trialTime": 25272
        },
        {
            "exptPart": "trial",
            "trialNumber": 25,
            "roleCurrent": "bullshitDetector",
            "marblesSampled": 10,
            "asymm": true,
            "probBullshitterRed": 0.8,
            "probBullshitDetectorRed": 0.2,
            "innerRed": 4,
            "outerRed": 116,
            "innerBlue": 16,
            "outerBlue": 14,
            "drawnRed": 5,
            "reportedDrawn": 7,
            "compLie": -1,
            "compUnifLie": true,
            "compDetect": -0.068359375,
            "callBS": true,
            "playerTrialScore": 5,
            "oppTrialScore": -5,
            "playerTotalScore": 79,
            "oppTotalScore": 46,
            "waitTime": 7181.903112241901,
            "responseTime": 5941,
            "catchQuestion": "What was the proportion of red to blue marbles from your opponent's perspective?",
            "catchKey": -1,
            "catchResponse": -1,
            "catchResponseTime": -1,
            "pseudoRound": false,
            "trialTime": 17414
        },
        {
            "exptPart": "trial",
            "trialNumber": 26,
            "roleCurrent": "bullshitter",
            "marblesSampled": 10,
            "asymm": false,
            "probBullshitterRed": 0.5,
            "probBullshitDetectorRed": 0.5,
            "innerRed": 10,
            "outerRed": 65,
            "innerBlue": 10,
            "outerBlue": 65,
            "drawnRed": 4,
            "reportedDrawn": 4,
            "compLie": -1,
            "compUnifLie": false,
            "compDetect": 0.25390625,
            "callBS": false,
            "playerTrialScore": 4,
            "oppTrialScore": 6,
            "playerTotalScore": 83,
            "oppTotalScore": 52,
            "waitTime": 2391.89619007876,
            "responseTime": 21048,
            "catchQuestion": "What was the proportion of red to blue marbles from your opponent's perspective?",
            "catchKey": -1,
            "catchResponse": -1,
            "catchResponseTime": -1,
            "pseudoRound": true,
            "trialTime": 34295
        },
        {
            "exptPart": "trial",
            "trialNumber": 27,
            "roleCurrent": "bullshitDetector",
            "marblesSampled": 10,
            "asymm": true,
            "probBullshitterRed": 0.8,
            "probBullshitDetectorRed": 0.2,
            "innerRed": 4,
            "outerRed": 116,
            "innerBlue": 16,
            "outerBlue": 14,
            "drawnRed": 6,
            "reportedDrawn": 6,
            "compLie": 2,
            "compUnifLie": false,
            "compDetect": -1,
            "callBS": true,
            "playerTrialScore": -1,
            "oppTrialScore": 6,
            "playerTotalScore": 82,
            "oppTotalScore": 58,
            "waitTime": 7066.224629291349,
            "responseTime": 9267,
            "catchQuestion": "What was the proportion of red to blue marbles from your perspective?",
            "catchKey": 20,
            "catchResponse": "23",
            "catchResponseTime": 8708,
            "pseudoRound": false,
            "trialTime": 28567
        },
        {
            "exptPart": "trial",
            "trialNumber": 28,
            "roleCurrent": "bullshitter",
            "marblesSampled": 10,
            "asymm": true,
            "probBullshitterRed": 0.8,
            "probBullshitDetectorRed": 0.2,
            "innerRed": 4,
            "outerRed": 116,
            "innerBlue": 16,
            "outerBlue": 14,
            "drawnRed": 8,
            "reportedDrawn": 8,
            "compLie": -1,
            "compUnifLie": false,
            "compDetect": 0.8221962752000002,
            "callBS": true,
            "playerTrialScore": 8,
            "oppTrialScore": -3,
            "playerTotalScore": 90,
            "oppTotalScore": 55,
            "waitTime": 2912.9502768630155,
            "responseTime": 30818,
            "catchQuestion": "What was the proportion of red to blue marbles from your perspective?",
            "catchKey": -1,
            "catchResponse": -1,
            "catchResponseTime": -1,
            "pseudoRound": false,
            "trialTime": 50003
        },
        {
            "exptPart": "trial",
            "trialNumber": 29,
            "roleCurrent": "bullshitDetector",
            "marblesSampled": 10,
            "asymm": true,
            "probBullshitterRed": 0.8,
            "probBullshitDetectorRed": 0.2,
            "innerRed": 4,
            "outerRed": 116,
            "innerBlue": 16,
            "outerBlue": 14,
            "drawnRed": 8,
            "reportedDrawn": 8,
            "compLie": 3,
            "compUnifLie": false,
            "compDetect": -1,
            "callBS": false,
            "playerTrialScore": 2,
            "oppTrialScore": 8,
            "playerTotalScore": 92,
            "oppTotalScore": 63,
            "waitTime": 6419.268038676356,
            "responseTime": 27893,
            "catchQuestion": "How many red marbles did your opponent report drawing?",
            "catchKey": 8,
            "catchResponse": 8,
            "catchResponseTime": 7278,
            "pseudoRound": false,
            "trialTime": 44612
        },
        {
            "exptPart": "trial",
            "trialNumber": 30,
            "roleCurrent": "bullshitter",
            "marblesSampled": 10,
            "asymm": true,
            "probBullshitterRed": 0.5,
            "probBullshitDetectorRed": 0.2,
            "innerRed": 4,
            "outerRed": 71,
            "innerBlue": 16,
            "outerBlue": 59,
            "drawnRed": 7,
            "reportedDrawn": 7,
            "compLie": -1,
            "compUnifLie": false,
            "compDetect": 0.8221225472000001,
            "callBS": true,
            "playerTrialScore": 7,
            "oppTrialScore": -2,
            "playerTotalScore": 99,
            "oppTotalScore": 61,
            "waitTime": 2928.7957752217135,
            "responseTime": 13850,
            "catchQuestion": "How many red marbles did your opponent report drawing?",
            "catchKey": -1,
            "catchResponse": -1,
            "catchResponseTime": -1,
            "pseudoRound": false,
            "trialTime": 67909
        },
        {
            "exptPart": "trial",
            "trialNumber": 31,
            "roleCurrent": "bullshitDetector",
            "marblesSampled": 10,
            "asymm": true,
            "probBullshitterRed": 0.8,
            "probBullshitDetectorRed": 0.2,
            "innerRed": 4,
            "outerRed": 116,
            "innerBlue": 16,
            "outerBlue": 14,
            "drawnRed": 8,
            "reportedDrawn": 2,
            "compLie": -1,
            "compUnifLie": true,
            "compDetect": 0.8221225472000001,
            "callBS": false,
            "playerTrialScore": 8,
            "oppTrialScore": 2,
            "playerTotalScore": 107,
            "oppTotalScore": 63,
            "waitTime": 5525.5906826490655,
            "responseTime": 14586,
            "catchQuestion": "How many red marbles did your opponent report drawing?",
            "catchKey": -1,
            "catchResponse": -1,
            "catchResponseTime": -1,
            "pseudoRound": false,
            "trialTime": 22924
        },
        {
            "exptPart": "trial",
            "trialNumber": 32,
            "roleCurrent": "bullshitter",
            "marblesSampled": 10,
            "asymm": true,
            "probBullshitterRed": 0.8,
            "probBullshitDetectorRed": 0.5,
            "innerRed": 10,
            "outerRed": 110,
            "innerBlue": 10,
            "outerBlue": 20,
            "drawnRed": 10,
            "reportedDrawn": 10,
            "compLie": -1,
            "compUnifLie": false,
            "compDetect": 0.876953125,
            "callBS": true,
            "playerTrialScore": 10,
            "oppTrialScore": -5,
            "playerTotalScore": 117,
            "oppTotalScore": 58,
            "waitTime": 2430.552205684048,
            "responseTime": 7951,
            "catchQuestion": "How many red marbles did your opponent report drawing?",
            "catchKey": -1,
            "catchResponse": -1,
            "catchResponseTime": -1,
            "pseudoRound": false,
            "trialTime": 17684
        },
        {
            "exptPart": "trial",
            "trialNumber": 33,
            "roleCurrent": "bullshitDetector",
            "marblesSampled": 10,
            "asymm": false,
            "probBullshitterRed": 0.2,
            "probBullshitDetectorRed": 0.2,
            "innerRed": 4,
            "outerRed": 26,
            "innerBlue": 16,
            "outerBlue": 104,
            "drawnRed": 2,
            "reportedDrawn": 8,
            "compLie": -1,
            "compUnifLie": false,
            "compDetect": 0.876953125,
            "callBS": true,
            "playerTrialScore": 5,
            "oppTrialScore": -5,
            "playerTotalScore": 122,
            "oppTotalScore": 53,
            "waitTime": 7021.8152938699295,
            "responseTime": 7301,
            "catchQuestion": "How many red marbles did your opponent report drawing?",
            "catchKey": -1,
            "catchResponse": -1,
            "catchResponseTime": -1,
            "pseudoRound": true,
            "trialTime": 16832
        },
        {
            "exptPart": "trial",
            "trialNumber": 34,
            "roleCurrent": "bullshitter",
            "marblesSampled": 10,
            "asymm": true,
            "probBullshitterRed": 0.8,
            "probBullshitDetectorRed": 0.2,
            "innerRed": 4,
            "outerRed": 116,
            "innerBlue": 16,
            "outerBlue": 14,
            "drawnRed": 9,
            "reportedDrawn": 9,
            "compLie": -1,
            "compUnifLie": false,
            "compDetect": 0.8222003712000001,
            "callBS": true,
            "playerTrialScore": 9,
            "oppTrialScore": -4,
            "playerTotalScore": 131,
            "oppTotalScore": 49,
            "waitTime": 2743.328974019285,
            "responseTime": 18927,
            "catchQuestion": "How many red marbles did your opponent report drawing?",
            "catchKey": -1,
            "catchResponse": -1,
            "catchResponseTime": -1,
            "pseudoRound": false,
            "trialTime": 32815
        },
        {
            "exptPart": "trial",
            "trialNumber": 35,
            "roleCurrent": "bullshitDetector",
            "marblesSampled": 10,
            "asymm": true,
            "probBullshitterRed": 0.8,
            "probBullshitDetectorRed": 0.5,
            "innerRed": 10,
            "outerRed": 110,
            "innerBlue": 10,
            "outerBlue": 20,
            "drawnRed": 10,
            "reportedDrawn": 10,
            "compLie": 7,
            "compUnifLie": false,
            "compDetect": -1,
            "callBS": true,
            "playerTrialScore": -5,
            "oppTrialScore": 10,
            "playerTotalScore": 126,
            "oppTotalScore": 59,
            "waitTime": 6446.874647963812,
            "responseTime": 38648,
            "catchQuestion": "How many red marbles did your opponent report drawing?",
            "catchKey": -1,
            "catchResponse": -1,
            "catchResponseTime": -1,
            "pseudoRound": false,
            "trialTime": 48390
        },
        {
            "exptPart": "trial",
            "trialNumber": 36,
            "roleCurrent": "bullshitter",
            "marblesSampled": 10,
            "asymm": false,
            "probBullshitterRed": 0.2,
            "probBullshitDetectorRed": 0.2,
            "innerRed": 4,
            "outerRed": 26,
            "innerBlue": 16,
            "outerBlue": 104,
            "drawnRed": 2,
            "reportedDrawn": 3,
            "compLie": -1,
            "compUnifLie": false,
            "compDetect": 0.7013265920000001,
            "callBS": false,
            "playerTrialScore": 3,
            "oppTrialScore": 7,
            "playerTotalScore": 129,
            "oppTotalScore": 66,
            "waitTime": 2532.7683056814176,
            "responseTime": 18021,
            "catchQuestion": "How many red marbles did your opponent report drawing?",
            "catchKey": -1,
            "catchResponse": -1,
            "catchResponseTime": -1,
            "pseudoRound": false,
            "trialTime": 31116
        },
        {
            "exptPart": "trial",
            "trialNumber": 37,
            "roleCurrent": "bullshitDetector",
            "marblesSampled": 10,
            "asymm": false,
            "probBullshitterRed": 0.2,
            "probBullshitDetectorRed": 0.2,
            "innerRed": 4,
            "outerRed": 26,
            "innerBlue": 16,
            "outerBlue": 104,
            "drawnRed": 3,
            "reportedDrawn": 3,
            "compLie": 2,
            "compUnifLie": false,
            "compDetect": -1,
            "callBS": true,
            "playerTrialScore": 2,
            "oppTrialScore": 3,
            "playerTotalScore": 131,
            "oppTotalScore": 69,
            "waitTime": 6381.30190620692,
            "responseTime": 22564,
            "catchQuestion": "How many red marbles did your opponent report drawing?",
            "catchKey": -1,
            "catchResponse": -1,
            "catchResponseTime": -1,
            "pseudoRound": false,
            "trialTime": 33711
        },
        {
            "exptPart": "trial",
            "trialNumber": 38,
            "roleCurrent": "bullshitter",
            "marblesSampled": 10,
            "asymm": false,
            "probBullshitterRed": 0.2,
            "probBullshitDetectorRed": 0.2,
            "innerRed": 4,
            "outerRed": 26,
            "innerBlue": 16,
            "outerBlue": 104,
            "drawnRed": 2,
            "reportedDrawn": 2,
            "compLie": -1,
            "compUnifLie": false,
            "compDetect": 0.5,
            "callBS": false,
            "playerTrialScore": 2,
            "oppTrialScore": 8,
            "playerTotalScore": 133,
            "oppTotalScore": 77,
            "waitTime": 2623.0395723364118,
            "responseTime": 11278,
            "catchQuestion": "What was the proportion of red to blue marbles from your opponent's perspective?",
            "catchKey": 20,
            "catchResponse": "10",
            "catchResponseTime": 16776,
            "pseudoRound": false,
            "trialTime": 38133
        },
        {
            "exptPart": "trial",
            "trialNumber": 39,
            "roleCurrent": "bullshitDetector",
            "marblesSampled": 10,
            "asymm": true,
            "probBullshitterRed": 0.2,
            "probBullshitDetectorRed": 0.5,
            "innerRed": 10,
            "outerRed": 20,
            "innerBlue": 10,
            "outerBlue": 110,
            "drawnRed": 2,
            "reportedDrawn": 5,
            "compLie": 5,
            "compUnifLie": false,
            "compDetect": -1,
            "callBS": false,
            "playerTrialScore": 5,
            "oppTrialScore": 5,
            "playerTotalScore": 138,
            "oppTotalScore": 82,
            "waitTime": 7277.362326687497,
            "responseTime": 8209,
            "catchQuestion": "What was the proportion of red to blue marbles from your opponent's perspective?",
            "catchKey": -1,
            "catchResponse": -1,
            "catchResponseTime": -1,
            "pseudoRound": false,
            "trialTime": 18584
        },
        {
            "exptPart": "trial",
            "trialNumber": 40,
            "roleCurrent": "bullshitter",
            "marblesSampled": 10,
            "asymm": true,
            "probBullshitterRed": 0.5,
            "probBullshitDetectorRed": 0.2,
            "innerRed": 4,
            "outerRed": 71,
            "innerBlue": 16,
            "outerBlue": 59,
            "drawnRed": 3,
            "reportedDrawn": 4,
            "compLie": -1,
            "compUnifLie": false,
            "compDetect": 0.7894069760000002,
            "callBS": true,
            "playerTrialScore": -5,
            "oppTrialScore": 5,
            "playerTotalScore": 133,
            "oppTotalScore": 87,
            "waitTime": 3235.1464339132935,
            "responseTime": 19017,
            "catchQuestion": "What was the proportion of red to blue marbles from your opponent's perspective?",
            "catchKey": -1,
            "catchResponse": -1,
            "catchResponseTime": -1,
            "pseudoRound": false,
            "trialTime": 33191
        },
        {
            "exptPart": "trial",
            "trialNumber": 41,
            "roleCurrent": "bullshitDetector",
            "marblesSampled": 10,
            "asymm": false,
            "probBullshitterRed": 0.5,
            "probBullshitDetectorRed": 0.5,
            "innerRed": 10,
            "outerRed": 65,
            "innerBlue": 10,
            "outerBlue": 65,
            "drawnRed": 5,
            "reportedDrawn": 6,
            "compLie": 6,
            "compUnifLie": false,
            "compDetect": -1,
            "callBS": false,
            "playerTrialScore": 4,
            "oppTrialScore": 6,
            "playerTotalScore": 137,
            "oppTotalScore": 93,
            "waitTime": 6610.848632731482,
            "responseTime": 20861,
            "catchQuestion": "What was the proportion of red to blue marbles from your opponent's perspective?",
            "catchKey": -1,
            "catchResponse": -1,
            "catchResponseTime": -1,
            "pseudoRound": false,
            "trialTime": 30002
        },
        {
            "exptPart": "trial",
            "trialNumber": 42,
            "roleCurrent": "bullshitter",
            "marblesSampled": 10,
            "asymm": true,
            "probBullshitterRed": 0.8,
            "probBullshitDetectorRed": 0.2,
            "innerRed": 4,
            "outerRed": 116,
            "innerBlue": 16,
            "outerBlue": 14,
            "drawnRed": 9,
            "reportedDrawn": 9,
            "compLie": -1,
            "compUnifLie": false,
            "compDetect": 0.8222003712000001,
            "callBS": true,
            "playerTrialScore": 9,
            "oppTrialScore": -4,
            "playerTotalScore": 146,
            "oppTotalScore": 89,
            "waitTime": 2434.3942710328947,
            "responseTime": 5463,
            "catchQuestion": "What was the proportion of red to blue marbles from your opponent's perspective?",
            "catchKey": -1,
            "catchResponse": -1,
            "catchResponseTime": -1,
            "pseudoRound": false,
            "trialTime": 29219
        },
        {
            "exptPart": "trial",
            "trialNumber": 43,
            "roleCurrent": "bullshitDetector",
            "marblesSampled": 10,
            "asymm": true,
            "probBullshitterRed": 0.8,
            "probBullshitDetectorRed": 0.2,
            "innerRed": 4,
            "outerRed": 116,
            "innerBlue": 16,
            "outerBlue": 14,
            "drawnRed": 7,
            "reportedDrawn": 6,
            "compLie": -1,
            "compUnifLie": false,
            "compDetect": 0.8222003712000001,
            "callBS": false,
            "playerTrialScore": 4,
            "oppTrialScore": 6,
            "playerTotalScore": 150,
            "oppTotalScore": 95,
            "waitTime": 6181.290986447348,
            "responseTime": 12292,
            "catchQuestion": "What was the proportion of red to blue marbles from your opponent's perspective?",
            "catchKey": -1,
            "catchResponse": -1,
            "catchResponseTime": -1,
            "pseudoRound": true,
            "trialTime": 21012
        },
        {
            "exptPart": "trial",
            "trialNumber": 44,
            "roleCurrent": "bullshitter",
            "marblesSampled": 10,
            "asymm": true,
            "probBullshitterRed": 0.5,
            "probBullshitDetectorRed": 0.2,
            "innerRed": 4,
            "outerRed": 71,
            "innerBlue": 16,
            "outerBlue": 59,
            "drawnRed": 7,
            "reportedDrawn": 7,
            "compLie": -1,
            "compUnifLie": false,
            "compDetect": 0.8221225472000001,
            "callBS": true,
            "playerTrialScore": 7,
            "oppTrialScore": -2,
            "playerTotalScore": 157,
            "oppTotalScore": 93,
            "waitTime": 2474.2159407638483,
            "responseTime": 9252,
            "catchQuestion": "What was the proportion of red to blue marbles from your opponent's perspective?",
            "catchKey": -1,
            "catchResponse": -1,
            "catchResponseTime": -1,
            "pseudoRound": false,
            "trialTime": 26368
        },
        {
            "exptPart": "trial",
            "trialNumber": 45,
            "roleCurrent": "bullshitDetector",
            "marblesSampled": 10,
            "asymm": true,
            "probBullshitterRed": 0.8,
            "probBullshitDetectorRed": 0.5,
            "innerRed": 10,
            "outerRed": 110,
            "innerBlue": 10,
            "outerBlue": 20,
            "drawnRed": 9,
            "reportedDrawn": 9,
            "compLie": 6,
            "compUnifLie": false,
            "compDetect": -1,
            "callBS": false,
            "playerTrialScore": 1,
            "oppTrialScore": 9,
            "playerTotalScore": 158,
            "oppTotalScore": 102,
            "waitTime": 5365.589077744031,
            "responseTime": 2566,
            "catchQuestion": "What was the proportion of red to blue marbles from your opponent's perspective?",
            "catchKey": -1,
            "catchResponse": -1,
            "catchResponseTime": -1,
            "pseudoRound": false,
            "trialTime": 15273
        },
        {
            "exptPart": "trial",
            "trialNumber": 46,
            "roleCurrent": "bullshitter",
            "marblesSampled": 10,
            "asymm": false,
            "probBullshitterRed": 0.5,
            "probBullshitDetectorRed": 0.5,
            "innerRed": 10,
            "outerRed": 65,
            "innerBlue": 10,
            "outerBlue": 65,
            "drawnRed": 5,
            "reportedDrawn": 7,
            "compLie": -1,
            "compUnifLie": false,
            "compDetect": 0.822265625,
            "callBS": true,
            "playerTrialScore": -5,
            "oppTrialScore": 5,
            "playerTotalScore": 153,
            "oppTotalScore": 107,
            "waitTime": 2343.377579725688,
            "responseTime": 14423,
            "catchQuestion": "What was the proportion of red to blue marbles from your opponent's perspective?",
            "catchKey": 50,
            "catchResponse": "41",
            "catchResponseTime": 12950,
            "pseudoRound": false,
            "trialTime": 40572
        },
        {
            "exptPart": "trial",
            "trialNumber": 47,
            "roleCurrent": "bullshitDetector",
            "marblesSampled": 10,
            "asymm": false,
            "probBullshitterRed": 0.8,
            "probBullshitDetectorRed": 0.8,
            "innerRed": 16,
            "outerRed": 104,
            "innerBlue": 4,
            "outerBlue": 26,
            "drawnRed": 9,
            "reportedDrawn": 9,
            "compLie": 9,
            "compUnifLie": false,
            "compDetect": -1,
            "callBS": false,
            "playerTrialScore": 1,
            "oppTrialScore": 9,
            "playerTotalScore": 154,
            "oppTotalScore": 116,
            "waitTime": 5152.962244484841,
            "responseTime": 9863,
            "catchQuestion": "What was the proportion of red to blue marbles from your opponent's perspective?",
            "catchKey": -1,
            "catchResponse": -1,
            "catchResponseTime": -1,
            "pseudoRound": false,
            "trialTime": 22984
        },
        {
            "exptPart": "trial",
            "trialNumber": 48,
            "roleCurrent": "bullshitter",
            "marblesSampled": 10,
            "asymm": true,
            "probBullshitterRed": 0.5,
            "probBullshitDetectorRed": 0.8,
            "innerRed": 16,
            "outerRed": 59,
            "innerBlue": 4,
            "outerBlue": 71,
            "drawnRed": 4,
            "reportedDrawn": 7,
            "compLie": -1,
            "compUnifLie": false,
            "compDetect": 0.1980101119999999,
            "callBS": false,
            "playerTrialScore": 7,
            "oppTrialScore": 3,
            "playerTotalScore": 161,
            "oppTotalScore": 119,
            "waitTime": 2360.562364531881,
            "responseTime": 29381,
            "catchQuestion": "What was the proportion of red to blue marbles from your opponent's perspective?",
            "catchKey": -1,
            "catchResponse": -1,
            "catchResponseTime": -1,
            "pseudoRound": false,
            "trialTime": 47109
        },
        {
            "exptPart": "trial",
            "trialNumber": 49,
            "roleCurrent": "bullshitDetector",
            "marblesSampled": 10,
            "asymm": true,
            "probBullshitterRed": 0.5,
            "probBullshitDetectorRed": 0.2,
            "innerRed": 4,
            "outerRed": 71,
            "innerBlue": 16,
            "outerBlue": 59,
            "drawnRed": 6,
            "reportedDrawn": 6,
            "compLie": 2,
            "compUnifLie": false,
            "compDetect": -1,
            "callBS": false,
            "playerTrialScore": 4,
            "oppTrialScore": 6,
            "playerTotalScore": 165,
            "oppTotalScore": 125,
            "waitTime": 5268.481677303174,
            "responseTime": 8148,
            "catchQuestion": "What was the proportion of red to blue marbles from your opponent's perspective?",
            "catchKey": -1,
            "catchResponse": -1,
            "catchResponseTime": -1,
            "pseudoRound": false,
            "trialTime": 20348
        },
        {
            "exptPart": "trial",
            "trialNumber": 50,
            "roleCurrent": "bullshitter",
            "marblesSampled": 10,
            "asymm": false,
            "probBullshitterRed": 0.8,
            "probBullshitDetectorRed": 0.8,
            "innerRed": 16,
            "outerRed": 104,
            "innerBlue": 4,
            "outerBlue": 26,
            "drawnRed": 10,
            "reportedDrawn": 10,
            "compLie": -1,
            "compUnifLie": false,
            "compDetect": 0.8758096384,
            "callBS": true,
            "playerTrialScore": 10,
            "oppTrialScore": -5,
            "playerTotalScore": 175,
            "oppTotalScore": 120,
            "waitTime": 2181.693368662979,
            "responseTime": 10064,
            "catchQuestion": "What was the proportion of red to blue marbles from your opponent's perspective?",
            "catchKey": -1,
            "catchResponse": -1,
            "catchResponseTime": -1,
            "pseudoRound": false,
            "trialTime": 24342
        },
        {
            "exptPart": "trial",
            "trialNumber": 51,
            "roleCurrent": "bullshitDetector",
            "marblesSampled": 10,
            "asymm": true,
            "probBullshitterRed": 0.5,
            "probBullshitDetectorRed": 0.2,
            "innerRed": 4,
            "outerRed": 71,
            "innerBlue": 16,
            "outerBlue": 59,
            "drawnRed": 3,
            "reportedDrawn": 3,
            "compLie": 0,
            "compUnifLie": false,
            "compDetect": -1,
            "callBS": true,
            "playerTrialScore": 2,
            "oppTrialScore": 3,
            "playerTotalScore": 177,
            "oppTotalScore": 123,
            "waitTime": 7124.865324514092,
            "responseTime": 4291,
            "catchQuestion": "What was the proportion of red to blue marbles from your opponent's perspective?",
            "catchKey": -1,
            "catchResponse": -1,
            "catchResponseTime": -1,
            "pseudoRound": false,
            "trialTime": 17383
        },
        {
            "exptPart": "trial",
            "trialNumber": 52,
            "roleCurrent": "bullshitter",
            "marblesSampled": 10,
            "asymm": true,
            "probBullshitterRed": 0.5,
            "probBullshitDetectorRed": 0.8,
            "innerRed": 16,
            "outerRed": 59,
            "innerBlue": 4,
            "outerBlue": 71,
            "drawnRed": 3,
            "reportedDrawn": 6,
            "compLie": -1,
            "compUnifLie": false,
            "compDetect": -0.0033164800000000383,
            "callBS": false,
            "playerTrialScore": 6,
            "oppTrialScore": 4,
            "playerTotalScore": 183,
            "oppTotalScore": 127,
            "waitTime": 2078.250281942599,
            "responseTime": 28606,
            "catchQuestion": "What was the proportion of red to blue marbles from your opponent's perspective?",
            "catchKey": 80,
            "catchResponse": "75",
            "catchResponseTime": 15546,
            "pseudoRound": false,
            "trialTime": 69723
        },
        {
            "exptPart": "trial",
            "trialNumber": 53,
            "roleCurrent": "bullshitDetector",
            "marblesSampled": 10,
            "asymm": true,
            "probBullshitterRed": 0.2,
            "probBullshitDetectorRed": 0.5,
            "innerRed": 10,
            "outerRed": 20,
            "innerBlue": 10,
            "outerBlue": 110,
            "drawnRed": 2,
            "reportedDrawn": 0,
            "compLie": -1,
            "compUnifLie": true,
            "compDetect": -0.0033164800000000383,
            "callBS": false,
            "playerTrialScore": 10,
            "oppTrialScore": 0,
            "playerTotalScore": 193,
            "oppTotalScore": 127,
            "waitTime": 7452.843035094358,
            "responseTime": 26253,
            "catchQuestion": "What was the proportion of red to blue marbles from your opponent's perspective?",
            "catchKey": -1,
            "catchResponse": -1,
            "catchResponseTime": -1,
            "pseudoRound": false,
            "trialTime": 36380
        },
        {
            "exptPart": "trial",
            "trialNumber": 54,
            "roleCurrent": "bullshitter",
            "marblesSampled": 10,
            "asymm": true,
            "probBullshitterRed": 0.2,
            "probBullshitDetectorRed": 0.8,
            "innerRed": 16,
            "outerRed": 14,
            "innerBlue": 4,
            "outerBlue": 116,
            "drawnRed": 2,
            "reportedDrawn": 9,
            "compLie": -1,
            "compUnifLie": false,
            "compDetect": 0.7684354560000001,
            "callBS": true,
            "playerTrialScore": -5,
            "oppTrialScore": 5,
            "playerTotalScore": 188,
            "oppTotalScore": 132,
            "waitTime": 2453.0751594739313,
            "responseTime": 8864,
            "catchQuestion": "What was the proportion of red to blue marbles from your opponent's perspective?",
            "catchKey": 80,
            "catchResponse": "74",
            "catchResponseTime": 19320,
            "pseudoRound": false,
            "trialTime": 77665
        },
        {
            "exptPart": "trial",
            "trialNumber": 55,
            "roleCurrent": "bullshitDetector",
            "marblesSampled": 10,
            "asymm": true,
            "probBullshitterRed": 0.2,
            "probBullshitDetectorRed": 0.8,
            "innerRed": 16,
            "outerRed": 14,
            "innerBlue": 4,
            "outerBlue": 116,
            "drawnRed": 3,
            "reportedDrawn": 9,
            "compLie": 9,
            "compUnifLie": false,
            "compDetect": -1,
            "callBS": true,
            "playerTrialScore": 5,
            "oppTrialScore": -5,
            "playerTotalScore": 193,
            "oppTotalScore": 127,
            "waitTime": 5147.923454546852,
            "responseTime": 7968,
            "catchQuestion": "What was the proportion of red to blue marbles from your opponent's perspective?",
            "catchKey": -1,
            "catchResponse": -1,
            "catchResponseTime": -1,
            "pseudoRound": false,
            "trialTime": 17452
        },
        {
            "exptPart": "trial",
            "trialNumber": 56,
            "roleCurrent": "bullshitter",
            "marblesSampled": 10,
            "asymm": false,
            "probBullshitterRed": 0.8,
            "probBullshitDetectorRed": 0.8,
            "innerRed": 16,
            "outerRed": 104,
            "innerBlue": 4,
            "outerBlue": 26,
            "drawnRed": 0,
            "reportedDrawn": 9,
            "compLie": -1,
            "compUnifLie": false,
            "compDetect": 0.7684354560000001,
            "callBS": false,
            "playerTrialScore": 9,
            "oppTrialScore": 1,
            "playerTotalScore": 202,
            "oppTotalScore": 128,
            "waitTime": 2513.078161173352,
            "responseTime": 11148,
            "catchQuestion": "What was the proportion of red to blue marbles from your opponent's perspective?",
            "catchKey": 80,
            "catchResponse": "82",
            "catchResponseTime": 10593,
            "pseudoRound": true,
            "trialTime": 40830
        },
        {
            "exptPart": "trial",
            "trialNumber": 57,
            "roleCurrent": "bullshitDetector",
            "marblesSampled": 10,
            "asymm": true,
            "probBullshitterRed": 0.2,
            "probBullshitDetectorRed": 0.5,
            "innerRed": 10,
            "outerRed": 20,
            "innerBlue": 10,
            "outerBlue": 110,
            "drawnRed": 2,
            "reportedDrawn": 1,
            "compLie": -1,
            "compUnifLie": false,
            "compDetect": 0.7684354560000001,
            "callBS": false,
            "playerTrialScore": 9,
            "oppTrialScore": 1,
            "playerTotalScore": 211,
            "oppTotalScore": 129,
            "waitTime": 5659.267316934362,
            "responseTime": 10003,
            "catchQuestion": "What was the proportion of red to blue marbles from your opponent's perspective?",
            "catchKey": -1,
            "catchResponse": -1,
            "catchResponseTime": -1,
            "pseudoRound": true,
            "trialTime": 18533
        },
        {
            "exptPart": "trial",
            "trialNumber": 58,
            "roleCurrent": "bullshitter",
            "marblesSampled": 10,
            "asymm": false,
            "probBullshitterRed": 0.8,
            "probBullshitDetectorRed": 0.8,
            "innerRed": 16,
            "outerRed": 104,
            "innerBlue": 4,
            "outerBlue": 26,
            "drawnRed": 8,
            "reportedDrawn": 10,
            "compLie": -1,
            "compUnifLie": false,
            "compDetect": 0.8758096384,
            "callBS": true,
            "playerTrialScore": -5,
            "oppTrialScore": 5,
            "playerTotalScore": 206,
            "oppTotalScore": 134,
            "waitTime": 2386.1698945613803,
            "responseTime": 7228,
            "catchQuestion": "What was the proportion of red to blue marbles from your opponent's perspective?",
            "catchKey": -1,
            "catchResponse": -1,
            "catchResponseTime": -1,
            "pseudoRound": false,
            "trialTime": 35718
        },
        {
            "exptPart": "trial",
            "trialNumber": 59,
            "roleCurrent": "bullshitDetector",
            "marblesSampled": 10,
            "asymm": true,
            "probBullshitterRed": 0.5,
            "probBullshitDetectorRed": 0.2,
            "innerRed": 4,
            "outerRed": 71,
            "innerBlue": 16,
            "outerBlue": 59,
            "drawnRed": 8,
            "reportedDrawn": 8,
            "compLie": 2,
            "compUnifLie": false,
            "compDetect": -1,
            "callBS": true,
            "playerTrialScore": -3,
            "oppTrialScore": 8,
            "playerTotalScore": 203,
            "oppTotalScore": 142,
            "waitTime": 7075.438752293356,
            "responseTime": 4960,
            "catchQuestion": "What was the proportion of red to blue marbles from your opponent's perspective?",
            "catchKey": "NA",
            "catchResponse": "39",
            "catchResponseTime": 32392,
            "pseudoRound": false,
            "trialTime": 49966
        },
        {
            "exptPart": "trial",
            "trialNumber": 60,
            "roleCurrent": "bullshitter",
            "marblesSampled": 10,
            "asymm": false,
            "probBullshitterRed": 0.8,
            "probBullshitDetectorRed": 0.8,
            "innerRed": 16,
            "outerRed": 104,
            "innerBlue": 4,
            "outerBlue": 26,
            "drawnRed": 7,
            "reportedDrawn": 10,
            "compLie": -1,
            "compUnifLie": false,
            "compDetect": 0.8758096384,
            "callBS": true,
            "playerTrialScore": -5,
            "oppTrialScore": 5,
            "playerTotalScore": 198,
            "oppTotalScore": 147,
            "waitTime": 3017.76930015106,
            "responseTime": 12820,
            "catchQuestion": "What was the proportion of red to blue marbles from your opponent's perspective?",
            "catchKey": -1,
            "catchResponse": -1,
            "catchResponseTime": -1,
            "pseudoRound": false,
            "trialTime": 66111
        },
        {
            "exptPart": "trial",
            "trialNumber": 61,
            "roleCurrent": "bullshitDetector",
            "marblesSampled": 10,
            "asymm": true,
            "probBullshitterRed": 0.5,
            "probBullshitDetectorRed": 0.8,
            "innerRed": 16,
            "outerRed": 59,
            "innerBlue": 4,
            "outerBlue": 71,
            "drawnRed": 6,
            "reportedDrawn": 5,
            "compLie": -1,
            "compUnifLie": false,
            "compDetect": 0.8758096384,
            "callBS": true,
            "playerTrialScore": 5,
            "oppTrialScore": -5,
            "playerTotalScore": 203,
            "oppTotalScore": 142,
            "waitTime": 6708.732361666476,
            "responseTime": 5291,
            "catchQuestion": "What was the proportion of red to blue marbles from your opponent's perspective?",
            "catchKey": -1,
            "catchResponse": -1,
            "catchResponseTime": -1,
            "pseudoRound": true,
            "trialTime": 27201
        },
        {
            "exptPart": "trial",
            "trialNumber": 62,
            "roleCurrent": "bullshitter",
            "marblesSampled": 10,
            "asymm": true,
            "probBullshitterRed": 0.2,
            "probBullshitDetectorRed": 0.5,
            "innerRed": 10,
            "outerRed": 20,
            "innerBlue": 10,
            "outerBlue": 110,
            "drawnRed": 3,
            "reportedDrawn": 5,
            "compLie": -1,
            "compUnifLie": false,
            "compDetect": 0.5,
            "callBS": true,
            "playerTrialScore": -5,
            "oppTrialScore": 5,
            "playerTotalScore": 198,
            "oppTotalScore": 147,
            "waitTime": 2774.436935689546,
            "responseTime": 6425,
            "catchQuestion": "What was the proportion of red to blue marbles from your opponent's perspective?",
            "catchKey": -1,
            "catchResponse": -1,
            "catchResponseTime": -1,
            "pseudoRound": true,
            "trialTime": 45026
        },
        {
            "exptPart": "trial",
            "trialNumber": 63,
            "roleCurrent": "bullshitDetector",
            "marblesSampled": 10,
            "asymm": false,
            "probBullshitterRed": 0.5,
            "probBullshitDetectorRed": 0.5,
            "innerRed": 10,
            "outerRed": 65,
            "innerBlue": 10,
            "outerBlue": 65,
            "drawnRed": 5,
            "reportedDrawn": 10,
            "compLie": -1,
            "compUnifLie": true,
            "compDetect": 0.5,
            "callBS": false,
            "playerTrialScore": 0,
            "oppTrialScore": 10,
            "playerTotalScore": 198,
            "oppTotalScore": 157,
            "waitTime": 6282.435653706081,
            "responseTime": 27467,
            "catchQuestion": "What was the proportion of red to blue marbles from your opponent's perspective?",
            "catchKey": -1,
            "catchResponse": -1,
            "catchResponseTime": -1,
            "pseudoRound": false,
            "trialTime": 36542
        },
        {
            "exptPart": "trial",
            "trialNumber": 64,
            "roleCurrent": "bullshitter",
            "marblesSampled": 10,
            "asymm": false,
            "probBullshitterRed": 0.2,
            "probBullshitDetectorRed": 0.2,
            "innerRed": 4,
            "outerRed": 26,
            "innerBlue": 16,
            "outerBlue": 104,
            "drawnRed": 1,
            "reportedDrawn": 4,
            "compLie": -1,
            "compUnifLie": false,
            "compDetect": 0.7894069760000002,
            "callBS": false,
            "playerTrialScore": 4,
            "oppTrialScore": 6,
            "playerTotalScore": 202,
            "oppTotalScore": 163,
            "waitTime": 2990.514122826412,
            "responseTime": 5516,
            "catchQuestion": "What was the proportion of red to blue marbles from your perspective?",
            "catchKey": 20,
            "catchResponse": "32",
            "catchResponseTime": 9817,
            "pseudoRound": false,
            "trialTime": 34942
        },
        {
            "exptPart": "trial",
            "trialNumber": 65,
            "roleCurrent": "bullshitDetector",
            "marblesSampled": 10,
            "asymm": false,
            "probBullshitterRed": 0.2,
            "probBullshitDetectorRed": 0.2,
            "innerRed": 4,
            "outerRed": 26,
            "innerBlue": 16,
            "outerBlue": 104,
            "drawnRed": 4,
            "reportedDrawn": 4,
            "compLie": 0,
            "compUnifLie": false,
            "compDetect": -1,
            "callBS": false,
            "playerTrialScore": 6,
            "oppTrialScore": 4,
            "playerTotalScore": 208,
            "oppTotalScore": 167,
            "waitTime": 7447.4457513577145,
            "responseTime": 8589,
            "catchQuestion": "What was the proportion of red to blue marbles from your perspective?",
            "catchKey": -1,
            "catchResponse": -1,
            "catchResponseTime": -1,
            "pseudoRound": false,
            "trialTime": 19633
        },
        {
            "exptPart": "trial",
            "trialNumber": 66,
            "roleCurrent": "bullshitter",
            "marblesSampled": 10,
            "asymm": true,
            "probBullshitterRed": 0.8,
            "probBullshitDetectorRed": 0.5,
            "innerRed": 10,
            "outerRed": 110,
            "innerBlue": 10,
            "outerBlue": 20,
            "drawnRed": 7,
            "reportedDrawn": 8,
            "compLie": -1,
            "compUnifLie": false,
            "compDetect": 0.8662109375,
            "callBS": true,
            "playerTrialScore": -5,
            "oppTrialScore": 5,
            "playerTotalScore": 203,
            "oppTotalScore": 172,
            "waitTime": 2749.4256583613487,
            "responseTime": 52809,
            "catchQuestion": "What was the proportion of red to blue marbles from your perspective?",
            "catchKey": -1,
            "catchResponse": -1,
            "catchResponseTime": -1,
            "pseudoRound": false,
            "trialTime": 93604
        },
        {
            "exptPart": "trial",
            "trialNumber": 67,
            "roleCurrent": "bullshitDetector",
            "marblesSampled": 10,
            "asymm": true,
            "probBullshitterRed": 0.8,
            "probBullshitDetectorRed": 0.2,
            "innerRed": 4,
            "outerRed": 116,
            "innerBlue": 16,
            "outerBlue": 14,
            "drawnRed": 9,
            "reportedDrawn": 9,
            "compLie": 2,
            "compUnifLie": false,
            "compDetect": -1,
            "callBS": true,
            "playerTrialScore": -4,
            "oppTrialScore": 9,
            "playerTotalScore": 199,
            "oppTotalScore": 181,
            "waitTime": 6882.222529005235,
            "responseTime": 6170,
            "catchQuestion": "What was the proportion of red to blue marbles from your perspective?",
            "catchKey": -1,
            "catchResponse": -1,
            "catchResponseTime": -1,
            "pseudoRound": false,
            "trialTime": 16235
        },
        {
            "exptPart": "trial",
            "trialNumber": 68,
            "roleCurrent": "bullshitter",
            "marblesSampled": 10,
            "asymm": false,
            "probBullshitterRed": 0.5,
            "probBullshitDetectorRed": 0.5,
            "innerRed": 10,
            "outerRed": 65,
            "innerBlue": 10,
            "outerBlue": 65,
            "drawnRed": 5,
            "reportedDrawn": 5,
            "compLie": -1,
            "compUnifLie": false,
            "compDetect": 0.5,
            "callBS": false,
            "playerTrialScore": 5,
            "oppTrialScore": 5,
            "playerTotalScore": 204,
            "oppTotalScore": 186,
            "waitTime": 2082.356767677148,
            "responseTime": 9524,
            "catchQuestion": "What was the proportion of red to blue marbles from your perspective?",
            "catchKey": -1,
            "catchResponse": -1,
            "catchResponseTime": -1,
            "pseudoRound": false,
            "trialTime": 45249
        },
        {
            "exptPart": "trial",
            "trialNumber": 69,
            "roleCurrent": "bullshitDetector",
            "marblesSampled": 10,
            "asymm": false,
            "probBullshitterRed": 0.8,
            "probBullshitDetectorRed": 0.8,
            "innerRed": 16,
            "outerRed": 104,
            "innerBlue": 4,
            "outerBlue": 26,
            "drawnRed": 10,
            "reportedDrawn": 10,
            "compLie": -1,
            "compUnifLie": true,
            "compDetect": 0.5,
            "callBS": false,
            "playerTrialScore": 0,
            "oppTrialScore": 10,
            "playerTotalScore": 204,
            "oppTotalScore": 196,
            "waitTime": 7353.686709955423,
            "responseTime": 11651,
            "catchQuestion": "What was the proportion of red to blue marbles from your perspective?",
            "catchKey": -1,
            "catchResponse": -1,
            "catchResponseTime": -1,
            "pseudoRound": false,
            "trialTime": 22297
        },
        {
            "exptPart": "trial",
            "trialNumber": 70,
            "roleCurrent": "bullshitter",
            "marblesSampled": 10,
            "asymm": true,
            "probBullshitterRed": 0.5,
            "probBullshitDetectorRed": 0.8,
            "innerRed": 16,
            "outerRed": 59,
            "innerBlue": 4,
            "outerBlue": 71,
            "drawnRed": 5,
            "reportedDrawn": 9,
            "compLie": -1,
            "compUnifLie": false,
            "compDetect": 0.7684354560000001,
            "callBS": false,
            "playerTrialScore": 9,
            "oppTrialScore": 1,
            "playerTotalScore": 213,
            "oppTotalScore": 197,
            "waitTime": 2273.078234711572,
            "responseTime": 8938,
            "catchQuestion": "What was the proportion of red to blue marbles from your perspective?",
            "catchKey": -1,
            "catchResponse": -1,
            "catchResponseTime": -1,
            "pseudoRound": false,
            "trialTime": 41530
        },
        {
            "exptPart": "trial",
            "trialNumber": 71,
            "roleCurrent": "bullshitDetector",
            "marblesSampled": 10,
            "asymm": false,
            "probBullshitterRed": 0.2,
            "probBullshitDetectorRed": 0.2,
            "innerRed": 4,
            "outerRed": 26,
            "innerBlue": 16,
            "outerBlue": 104,
            "drawnRed": 4,
            "reportedDrawn": 4,
            "compLie": -1,
            "compUnifLie": false,
            "compDetect": 0.7684354560000001,
            "callBS": true,
            "playerTrialScore": 1,
            "oppTrialScore": 4,
            "playerTotalScore": 214,
            "oppTotalScore": 201,
            "waitTime": 7277.105499431606,
            "responseTime": 12879,
            "catchQuestion": "What was the proportion of red to blue marbles from your perspective?",
            "catchKey": -1,
            "catchResponse": -1,
            "catchResponseTime": -1,
            "pseudoRound": true,
            "trialTime": 23101
        },
        {
            "exptPart": "trial",
            "trialNumber": 72,
            "roleCurrent": "bullshitter",
            "marblesSampled": 10,
            "asymm": true,
            "probBullshitterRed": 0.2,
            "probBullshitDetectorRed": 0.5,
            "innerRed": 10,
            "outerRed": 20,
            "innerBlue": 10,
            "outerBlue": 110,
            "drawnRed": 9,
            "reportedDrawn": 9,
            "compLie": -1,
            "compUnifLie": false,
            "compDetect": 0.8759765625,
            "callBS": true,
            "playerTrialScore": 9,
            "oppTrialScore": -4,
            "playerTotalScore": 223,
            "oppTotalScore": 197,
            "waitTime": 2344.8179645802848,
            "responseTime": 4611,
            "catchQuestion": "What was the proportion of red to blue marbles from your perspective?",
            "catchKey": -1,
            "catchResponse": -1,
            "catchResponseTime": -1,
            "pseudoRound": true,
            "trialTime": 22192
        },
        {
            "exptPart": "trial",
            "trialNumber": 73,
            "roleCurrent": "bullshitDetector",
            "marblesSampled": 10,
            "asymm": true,
            "probBullshitterRed": 0.2,
            "probBullshitDetectorRed": 0.8,
            "innerRed": 16,
            "outerRed": 14,
            "innerBlue": 4,
            "outerBlue": 116,
            "drawnRed": 1,
            "reportedDrawn": 6,
            "compLie": -1,
            "compUnifLie": true,
            "compDetect": 0.8759765625,
            "callBS": true,
            "playerTrialScore": 5,
            "oppTrialScore": -5,
            "playerTotalScore": 228,
            "oppTotalScore": 192,
            "waitTime": 6688.468888541083,
            "responseTime": 14889,
            "catchQuestion": "What was the proportion of red to blue marbles from your perspective?",
            "catchKey": -1,
            "catchResponse": -1,
            "catchResponseTime": -1,
            "pseudoRound": false,
            "trialTime": 30239
        },
        {
            "exptPart": "trial",
            "trialNumber": 74,
            "roleCurrent": "bullshitter",
            "marblesSampled": 10,
            "asymm": false,
            "probBullshitterRed": 0.5,
            "probBullshitDetectorRed": 0.5,
            "innerRed": 10,
            "outerRed": 65,
            "innerBlue": 10,
            "outerBlue": 65,
            "drawnRed": 6,
            "reportedDrawn": 7,
            "compLie": -1,
            "compUnifLie": false,
            "compDetect": 0.822265625,
            "callBS": false,
            "playerTrialScore": 7,
            "oppTrialScore": 3,
            "playerTotalScore": 235,
            "oppTotalScore": 195,
            "waitTime": 2184.199725972286,
            "responseTime": 15461,
            "catchQuestion": "What was the proportion of red to blue marbles from your perspective?",
            "catchKey": -1,
            "catchResponse": -1,
            "catchResponseTime": -1,
            "pseudoRound": false,
            "trialTime": 29136
        },
        {
            "exptPart": "trial",
            "trialNumber": 75,
            "roleCurrent": "bullshitDetector",
            "marblesSampled": 10,
            "asymm": false,
            "probBullshitterRed": 0.5,
            "probBullshitDetectorRed": 0.5,
            "innerRed": 10,
            "outerRed": 65,
            "innerBlue": 10,
            "outerBlue": 65,
            "drawnRed": 6,
            "reportedDrawn": 6,
            "compLie": 3,
            "compUnifLie": false,
            "compDetect": -1,
            "callBS": false,
            "playerTrialScore": 4,
            "oppTrialScore": 6,
            "playerTotalScore": 239,
            "oppTotalScore": 201,
            "waitTime": 6280.334815885426,
            "responseTime": 31555,
            "catchQuestion": "How many red marbles did your opponent report drawing?",
            "catchKey": 6,
            "catchResponse": 6,
            "catchResponseTime": 8475,
            "pseudoRound": false,
            "trialTime": 49146
        },
        {
            "exptPart": "trial",
            "trialNumber": 76,
            "roleCurrent": "bullshitter",
            "marblesSampled": 10,
            "asymm": true,
            "probBullshitterRed": 0.5,
            "probBullshitDetectorRed": 0.8,
            "innerRed": 16,
            "outerRed": 59,
            "innerBlue": 4,
            "outerBlue": 71,
            "drawnRed": 5,
            "reportedDrawn": 7,
            "compLie": -1,
            "compUnifLie": false,
            "compDetect": 0.1980101119999999,
            "callBS": false,
            "playerTrialScore": 7,
            "oppTrialScore": 3,
            "playerTotalScore": 246,
            "oppTotalScore": 204,
            "waitTime": 2886.6818771936046,
            "responseTime": 44727,
            "catchQuestion": "How many red marbles did your opponent report drawing?",
            "catchKey": -1,
            "catchResponse": -1,
            "catchResponseTime": -1,
            "pseudoRound": true,
            "trialTime": 60549
        },
        {
            "exptPart": "trial",
            "trialNumber": 77,
            "roleCurrent": "bullshitDetector",
            "marblesSampled": 10,
            "asymm": true,
            "probBullshitterRed": 0.8,
            "probBullshitDetectorRed": 0.5,
            "innerRed": 10,
            "outerRed": 110,
            "innerBlue": 10,
            "outerBlue": 20,
            "drawnRed": 7,
            "reportedDrawn": 7,
            "compLie": 4,
            "compUnifLie": false,
            "compDetect": -1,
            "callBS": true,
            "playerTrialScore": -2,
            "oppTrialScore": 7,
            "playerTotalScore": 244,
            "oppTotalScore": 211,
            "waitTime": 5250.855925982653,
            "responseTime": 48980,
            "catchQuestion": "What was the proportion of red to blue marbles from your perspective?",
            "catchKey": 50,
            "catchResponse": "24",
            "catchResponseTime": 15737,
            "pseudoRound": false,
            "trialTime": 87887
        },
        {
            "exptPart": "trial",
            "trialNumber": 78,
            "roleCurrent": "bullshitter",
            "marblesSampled": 10,
            "asymm": true,
            "probBullshitterRed": 0.8,
            "probBullshitDetectorRed": 0.2,
            "innerRed": 4,
            "outerRed": 116,
            "innerBlue": 16,
            "outerBlue": 14,
            "drawnRed": 8,
            "reportedDrawn": 8,
            "compLie": -1,
            "compUnifLie": false,
            "compDetect": 0.8221962752000002,
            "callBS": true,
            "playerTrialScore": 8,
            "oppTrialScore": -3,
            "playerTotalScore": 252,
            "oppTotalScore": 208,
            "waitTime": 2833.971795313215,
            "responseTime": 22486,
            "catchQuestion": "What was the proportion of red to blue marbles from your perspective?",
            "catchKey": -1,
            "catchResponse": -1,
            "catchResponseTime": -1,
            "pseudoRound": true,
            "trialTime": 98357
        },
        {
            "exptPart": "trial",
            "trialNumber": 79,
            "roleCurrent": "bullshitDetector",
            "marblesSampled": 10,
            "asymm": false,
            "probBullshitterRed": 0.5,
            "probBullshitDetectorRed": 0.5,
            "innerRed": 10,
            "outerRed": 65,
            "innerBlue": 10,
            "outerBlue": 65,
            "drawnRed": 5,
            "reportedDrawn": 3,
            "compLie": -1,
            "compUnifLie": false,
            "compDetect": 0.8221962752000002,
            "callBS": false,
            "playerTrialScore": 7,
            "oppTrialScore": 3,
            "playerTotalScore": 259,
            "oppTotalScore": 211,
            "waitTime": 5914.100909885044,
            "responseTime": 16245,
            "catchQuestion": "What was the proportion of red to blue marbles from your perspective?",
            "catchKey": -1,
            "catchResponse": -1,
            "catchResponseTime": -1,
            "pseudoRound": true,
            "trialTime": 25604
        },
        {
            "exptPart": "trial",
            "trialNumber": 80,
            "roleCurrent": "bullshitter",
            "marblesSampled": 10,
            "asymm": false,
            "probBullshitterRed": 0.2,
            "probBullshitDetectorRed": 0.2,
            "innerRed": 4,
            "outerRed": 26,
            "innerBlue": 16,
            "outerBlue": 104,
            "drawnRed": 3,
            "reportedDrawn": 3,
            "compLie": -1,
            "compUnifLie": false,
            "compDetect": 0.7013265920000001,
            "callBS": false,
            "playerTrialScore": 3,
            "oppTrialScore": 7,
            "playerTotalScore": 262,
            "oppTotalScore": 218,
            "waitTime": 2080.1651411027788,
            "responseTime": 31935,
            "catchQuestion": "What was the proportion of red to blue marbles from your perspective?",
            "catchKey": -1,
            "catchResponse": -1,
            "catchResponseTime": -1,
            "pseudoRound": false,
            "trialTime": 50744
        },
        {
            "exptPart": "trial",
            "trialNumber": 81,
            "roleCurrent": "bullshitDetector",
            "marblesSampled": 10,
            "asymm": true,
            "probBullshitterRed": 0.2,
            "probBullshitDetectorRed": 0.5,
            "innerRed": 10,
            "outerRed": 20,
            "innerBlue": 10,
            "outerBlue": 110,
            "drawnRed": 0,
            "reportedDrawn": 3,
            "compLie": 3,
            "compUnifLie": false,
            "compDetect": -1,
            "callBS": false,
            "playerTrialScore": 7,
            "oppTrialScore": 3,
            "playerTotalScore": 269,
            "oppTotalScore": 221,
            "waitTime": 7335.665600772455,
            "responseTime": 13645,
            "catchQuestion": "What was the proportion of red to blue marbles from your perspective?",
            "catchKey": -1,
            "catchResponse": -1,
            "catchResponseTime": -1,
            "pseudoRound": false,
            "trialTime": 24889
        },
        {
            "exptPart": "trial",
            "trialNumber": 82,
            "roleCurrent": "bullshitter",
            "marblesSampled": 10,
            "asymm": true,
            "probBullshitterRed": 0.8,
            "probBullshitDetectorRed": 0.2,
            "innerRed": 4,
            "outerRed": 116,
            "innerBlue": 16,
            "outerBlue": 14,
            "drawnRed": 6,
            "reportedDrawn": 6,
            "compLie": -1,
            "compUnifLie": false,
            "compDetect": 0.8213361152000002,
            "callBS": true,
            "playerTrialScore": 6,
            "oppTrialScore": -1,
            "playerTotalScore": 275,
            "oppTotalScore": 220,
            "waitTime": 2573.8882427036892,
            "responseTime": 14598,
            "catchQuestion": "What was the proportion of red to blue marbles from your perspective?",
            "catchKey": -1,
            "catchResponse": -1,
            "catchResponseTime": -1,
            "pseudoRound": false,
            "trialTime": 29297
        },
        {
            "exptPart": "trial",
            "trialNumber": 83,
            "roleCurrent": "bullshitDetector",
            "marblesSampled": 10,
            "asymm": true,
            "probBullshitterRed": 0.8,
            "probBullshitDetectorRed": 0.5,
            "innerRed": 10,
            "outerRed": 110,
            "innerBlue": 10,
            "outerBlue": 20,
            "drawnRed": 9,
            "reportedDrawn": 9,
            "compLie": 6,
            "compUnifLie": false,
            "compDetect": -1,
            "callBS": false,
            "playerTrialScore": 1,
            "oppTrialScore": 9,
            "playerTotalScore": 276,
            "oppTotalScore": 229,
            "waitTime": 5137.613567261148,
            "responseTime": 5023,
            "catchQuestion": "What was the proportion of red to blue marbles from your perspective?",
            "catchKey": -1,
            "catchResponse": -1,
            "catchResponseTime": -1,
            "pseudoRound": false,
            "trialTime": 28053
        },
        {
            "exptPart": "trial",
            "trialNumber": 84,
            "roleCurrent": "bullshitter",
            "marblesSampled": 10,
            "asymm": true,
            "probBullshitterRed": 0.5,
            "probBullshitDetectorRed": 0.8,
            "innerRed": 16,
            "outerRed": 59,
            "innerBlue": 4,
            "outerBlue": 71,
            "drawnRed": 2,
            "reportedDrawn": 9,
            "compLie": -1,
            "compUnifLie": false,
            "compDetect": 0.7684354560000001,
            "callBS": false,
            "playerTrialScore": 9,
            "oppTrialScore": 1,
            "playerTotalScore": 285,
            "oppTotalScore": 230,
            "waitTime": 2084.3721521656403,
            "responseTime": 13093,
            "catchQuestion": "What was the proportion of red to blue marbles from your perspective?",
            "catchKey": -1,
            "catchResponse": -1,
            "catchResponseTime": -1,
            "pseudoRound": false,
            "trialTime": 22769
        },
        {
            "exptPart": "trial",
            "trialNumber": 85,
            "roleCurrent": "bullshitDetector",
            "marblesSampled": 10,
            "asymm": false,
            "probBullshitterRed": 0.8,
            "probBullshitDetectorRed": 0.8,
            "innerRed": 16,
            "outerRed": 104,
            "innerBlue": 4,
            "outerBlue": 26,
            "drawnRed": 7,
            "reportedDrawn": 2,
            "compLie": -1,
            "compUnifLie": false,
            "compDetect": 0.7684354560000001,
            "callBS": true,
            "playerTrialScore": 5,
            "oppTrialScore": -5,
            "playerTotalScore": 290,
            "oppTotalScore": 225,
            "waitTime": 6548.390193130519,
            "responseTime": 10148,
            "catchQuestion": "What was the proportion of red to blue marbles from your perspective?",
            "catchKey": -1,
            "catchResponse": -1,
            "catchResponseTime": -1,
            "pseudoRound": true,
            "trialTime": 19082
        },
        {
            "exptPart": "trial",
            "trialNumber": 86,
            "roleCurrent": "bullshitter",
            "marblesSampled": 10,
            "asymm": false,
            "probBullshitterRed": 0.2,
            "probBullshitDetectorRed": 0.2,
            "innerRed": 4,
            "outerRed": 26,
            "innerBlue": 16,
            "outerBlue": 104,
            "drawnRed": 5,
            "reportedDrawn": 5,
            "compLie": -1,
            "compUnifLie": false,
            "compDetect": 0.8158310912000002,
            "callBS": true,
            "playerTrialScore": 5,
            "oppTrialScore": 0,
            "playerTotalScore": 295,
            "oppTotalScore": 225,
            "waitTime": 2958.602987151733,
            "responseTime": 8626,
            "catchQuestion": "What was the proportion of red to blue marbles from your perspective?",
            "catchKey": -1,
            "catchResponse": -1,
            "catchResponseTime": -1,
            "pseudoRound": false,
            "trialTime": 35213
        },
        {
            "exptPart": "trial",
            "trialNumber": 87,
            "roleCurrent": "bullshitDetector",
            "marblesSampled": 10,
            "asymm": true,
            "probBullshitterRed": 0.8,
            "probBullshitDetectorRed": 0.2,
            "innerRed": 4,
            "outerRed": 116,
            "innerBlue": 16,
            "outerBlue": 14,
            "drawnRed": 8,
            "reportedDrawn": 8,
            "compLie": 3,
            "compUnifLie": false,
            "compDetect": -1,
            "callBS": true,
            "playerTrialScore": -3,
            "oppTrialScore": 8,
            "playerTotalScore": 292,
            "oppTotalScore": 233,
            "waitTime": 5422.61954027574,
            "responseTime": 10487,
            "catchQuestion": "What was the proportion of red to blue marbles from your perspective?",
            "catchKey": -1,
            "catchResponse": -1,
            "catchResponseTime": -1,
            "pseudoRound": false,
            "trialTime": 20126
        },
        {
            "exptPart": "trial",
            "trialNumber": 88,
            "roleCurrent": "bullshitter",
            "marblesSampled": 10,
            "asymm": true,
            "probBullshitterRed": 0.8,
            "probBullshitDetectorRed": 0.2,
            "innerRed": 4,
            "outerRed": 116,
            "innerBlue": 16,
            "outerBlue": 14,
            "drawnRed": 9,
            "reportedDrawn": 9,
            "compLie": -1,
            "compUnifLie": false,
            "compDetect": 0.8222003712000001,
            "callBS": true,
            "playerTrialScore": 9,
            "oppTrialScore": -4,
            "playerTotalScore": 301,
            "oppTotalScore": 229,
            "waitTime": 3117.0342597353215,
            "responseTime": 6873,
            "catchQuestion": "What was the proportion of red to blue marbles from your perspective?",
            "catchKey": -1,
            "catchResponse": -1,
            "catchResponseTime": -1,
            "pseudoRound": false,
            "trialTime": 63259
        },
        {
            "exptPart": "trial",
            "trialNumber": 89,
            "roleCurrent": "bullshitDetector",
            "marblesSampled": 10,
            "asymm": true,
            "probBullshitterRed": 0.2,
            "probBullshitDetectorRed": 0.8,
            "innerRed": 16,
            "outerRed": 14,
            "innerBlue": 4,
