{
    "client": {
        "type": "sona",
        "experiment_id": 1505,
        "credit_token": "b20092f9d3b34a378ee654bcc50710ea",
        "survey_code": "33402",
        "sid": "sona-33402",
        "window": {
            "width": 1440,
            "height": 820
        },
        "screen": {
            "width": 1440,
            "height": 900
        },
        "userAgent": "Mozilla\/5.0 (Macintosh; Intel Mac OS X 10_15_6) AppleWebKit\/605.1.15 (KHTML, like Gecko) Version\/14.0.1 Safari\/605.1.15",
        "score": 0,
        "bonus": 0
    },
    "expt": {
        "saveURL": "submit.simple.php",
        "trials": 100,
        "practiceTrials": 4,
        "marblesSampled": 10,
        "roles": [
            "bullshitter",
            "bullshitDetector"
        ],
        "roleFirst": "bullshitter",
        "allTrialProbs": [
            0.2,
            0.5,
            0.8
        ],
        "occlude": "computer",
        "catchTrials": [
            8,
            24,
            56,
            44,
            71,
            43,
            64,
            33,
            10,
            23,
            38,
            85,
            72,
            30,
            75
        ],
        "pseudo": {
            "0": 0,
            "3": 0,
            "6": 9,
            "9": 5,
            "14": 3,
            "16": 10,
            "23": 3,
            "32": 8,
            "41": 2,
            "42": 4,
            "44": 2,
            "46": 7,
            "50": 1,
            "63": 4,
            "67": 7,
            "68": 6,
            "69": 6,
            "80": 5,
            "81": 9,
            "85": 8,
            "99": 10,
            "101": 1
        },
        "stat": {
            "playerTotalScore": 343,
            "oppTotalScore": 402,
            "truth": 34,
            "truth_noBS": 19,
            "truth_BS": 15,
            "lie": 16,
            "lie_noBS": 9,
            "lie_BS": 7,
            "noBS": 35,
            "noBS_truth": 14,
            "noBS_lie": 21,
            "BS": 15,
            "BS_truth": 8,
            "BS_lie": 7
        },
        "sona": {
            "experiment_id": 1505,
            "credit_token": "b20092f9d3b34a378ee654bcc50710ea"
        },
        "debug": false
    },
    "trials": [
        {
            "exptPart": "practice",
            "trialNumber": 1,
            "roleCurrent": "bullshitter",
            "marblesSampled": 10,
            "asymm": true,
            "probBullshitterRed": 0.8,
            "probBullshitDetectorRed": 0.2,
            "innerRed": 4,
            "outerRed": 116,
            "innerBlue": 16,
            "outerBlue": 14,
            "drawnRed": 7,
            "reportedDrawn": 3,
            "compLie": -1,
            "compUnifLie": false,
            "compDetect": 0.7013265920000002,
            "callBS": true,
            "playerTrialScore": -5,
            "oppTrialScore": 5,
            "playerTotalScore": -5,
            "oppTotalScore": 5,
            "waitTime": 2753.341371434104,
            "responseTime": 15906,
            "catchQuestion": "How many red marbles did you actually draw?",
            "catchKey": 7,
            "catchResponse": 7,
            "catchResponseTime": 7346,
            "pseudoRound": false,
            "trialTime": 41979
        },
        {
            "exptPart": "practice",
            "trialNumber": 2,
            "roleCurrent": "bullshitDetector",
            "marblesSampled": 10,
            "asymm": true,
            "probBullshitterRed": 0.8,
            "probBullshitDetectorRed": 0.5,
            "innerRed": 10,
            "outerRed": 110,
            "innerBlue": 10,
            "outerBlue": 20,
            "drawnRed": 10,
            "reportedDrawn": 10,
            "compLie": 7,
            "compUnifLie": false,
            "compDetect": -1,
            "callBS": true,
            "playerTrialScore": -5,
            "oppTrialScore": 10,
            "playerTotalScore": -10,
            "oppTotalScore": 15,
            "waitTime": 6942.110480803902,
            "responseTime": 3837,
            "catchQuestion": "How many red marbles did your opponent report drawing?",
            "catchKey": 10,
            "catchResponse": 10,
            "catchResponseTime": 9120,
            "pseudoRound": false,
            "trialTime": 26053
        },
        {
            "exptPart": "practice",
            "trialNumber": 3,
            "roleCurrent": "bullshitter",
            "marblesSampled": 10,
            "asymm": true,
            "probBullshitterRed": 0.5,
            "probBullshitDetectorRed": 0.8,
            "innerRed": 16,
            "outerRed": 59,
            "innerBlue": 4,
            "outerBlue": 71,
            "drawnRed": 4,
            "reportedDrawn": 4,
            "compLie": -1,
            "compUnifLie": false,
            "compDetect": -0.11782097919999997,
            "callBS": false,
            "playerTrialScore": 4,
            "oppTrialScore": 6,
            "playerTotalScore": -6,
            "oppTotalScore": 21,
            "waitTime": 2108.951085643427,
            "responseTime": 6557,
            "catchQuestion": "How many red marbles did you actually draw?",
            "catchKey": 4,
            "catchResponse": 4,
            "catchResponseTime": 3104,
            "pseudoRound": false,
            "trialTime": 22649
        },
        {
            "exptPart": "practice",
            "trialNumber": 4,
            "roleCurrent": "bullshitDetector",
            "marblesSampled": 10,
            "asymm": true,
            "probBullshitterRed": 0.8,
            "probBullshitDetectorRed": 0.2,
            "innerRed": 4,
            "outerRed": 116,
            "innerBlue": 16,
            "outerBlue": 14,
            "drawnRed": 8,
            "reportedDrawn": 8,
            "compLie": 4,
            "compUnifLie": false,
            "compDetect": -1,
            "callBS": true,
            "playerTrialScore": -3,
            "oppTrialScore": 8,
            "playerTotalScore": -9,
            "oppTotalScore": 29,
            "waitTime": 6566.311078342143,
            "responseTime": 2869,
            "catchQuestion": "What was the proportion of red to blue marbles from your opponent's perspective?",
            "catchKey": "NA",
            "catchResponse": "75",
            "catchResponseTime": 11352,
            "pseudoRound": false,
            "trialTime": 25536
        },
        {
            "exptPart": "trial",
            "trialNumber": 1,
            "roleCurrent": "bullshitter",
            "marblesSampled": 10,
            "asymm": false,
            "probBullshitterRed": 0.8,
            "probBullshitDetectorRed": 0.8,
            "innerRed": 16,
            "outerRed": 104,
            "innerBlue": 4,
            "outerBlue": 26,
            "drawnRed": 0,
            "reportedDrawn": 0,
            "compLie": -1,
            "compUnifLie": false,
            "compDetect": -0.12419025919999997,
            "callBS": false,
            "playerTrialScore": 0,
            "oppTrialScore": 10,
            "playerTotalScore": 0,
            "oppTotalScore": 10,
            "waitTime": 2995.3579679361205,
            "responseTime": 4808,
            "catchQuestion": "What was the proportion of red to blue marbles from your opponent's perspective?",
            "catchKey": -1,
            "catchResponse": -1,
            "catchResponseTime": -1,
            "pseudoRound": true,
            "trialTime": 16794
        },
        {
            "exptPart": "trial",
            "trialNumber": 2,
            "roleCurrent": "bullshitDetector",
            "marblesSampled": 10,
            "asymm": false,
            "probBullshitterRed": 0.5,
            "probBullshitDetectorRed": 0.5,
            "innerRed": 10,
            "outerRed": 65,
            "innerBlue": 10,
            "outerBlue": 65,
            "drawnRed": 7,
            "reportedDrawn": 0,
            "compLie": -1,
            "compUnifLie": true,
            "compDetect": -0.12419025919999997,
            "callBS": true,
            "playerTrialScore": 5,
            "oppTrialScore": -5,
            "playerTotalScore": 5,
            "oppTotalScore": 5,
            "waitTime": 6361.202347668648,
            "responseTime": 8260,
            "catchQuestion": "What was the proportion of red to blue marbles from your opponent's perspective?",
            "catchKey": -1,
            "catchResponse": -1,
            "catchResponseTime": -1,
            "pseudoRound": false,
            "trialTime": 16772
        },
        {
            "exptPart": "trial",
            "trialNumber": 3,
            "roleCurrent": "bullshitter",
            "marblesSampled": 10,
            "asymm": false,
            "probBullshitterRed": 0.5,
            "probBullshitDetectorRed": 0.5,
            "innerRed": 10,
            "outerRed": 65,
            "innerBlue": 10,
            "outerBlue": 65,
            "drawnRed": 5,
            "reportedDrawn": 6,
            "compLie": -1,
            "compUnifLie": false,
            "compDetect": 0.705078125,
            "callBS": true,
            "playerTrialScore": -5,
            "oppTrialScore": 5,
            "playerTotalScore": 0,
            "oppTotalScore": 10,
            "waitTime": 2188.1917106031847,
            "responseTime": 7738,
            "catchQuestion": "What was the proportion of red to blue marbles from your opponent's perspective?",
            "catchKey": -1,
            "catchResponse": -1,
            "catchResponseTime": -1,
            "pseudoRound": false,
            "trialTime": 15856
        },
        {
            "exptPart": "trial",
            "trialNumber": 4,
            "roleCurrent": "bullshitDetector",
            "marblesSampled": 10,
            "asymm": false,
            "probBullshitterRed": 0.2,
            "probBullshitDetectorRed": 0.2,
            "innerRed": 4,
            "outerRed": 26,
            "innerBlue": 16,
            "outerBlue": 104,
            "drawnRed": 3,
            "reportedDrawn": 0,
            "compLie": -1,
            "compUnifLie": false,
            "compDetect": 0.705078125,
            "callBS": false,
            "playerTrialScore": 10,
            "oppTrialScore": 0,
            "playerTotalScore": 10,
            "oppTotalScore": 10,
            "waitTime": 5734.482779625543,
            "responseTime": 6323,
            "catchQuestion": "What was the proportion of red to blue marbles from your opponent's perspective?",
            "catchKey": -1,
            "catchResponse": -1,
            "catchResponseTime": -1,
            "pseudoRound": true,
            "trialTime": 14807
        },
        {
            "exptPart": "trial",
            "trialNumber": 5,
            "roleCurrent": "bullshitter",
            "marblesSampled": 10,
            "asymm": false,
            "probBullshitterRed": 0.5,
            "probBullshitDetectorRed": 0.5,
            "innerRed": 10,
            "outerRed": 65,
            "innerBlue": 10,
            "outerBlue": 65,
            "drawnRed": 7,
            "reportedDrawn": 7,
            "compLie": -1,
            "compUnifLie": false,
            "compDetect": 0.822265625,
            "callBS": true,
            "playerTrialScore": 7,
            "oppTrialScore": -2,
            "playerTotalScore": 17,
            "oppTotalScore": 8,
            "waitTime": 2289.425308760579,
            "responseTime": 6114,
            "catchQuestion": "What was the proportion of red to blue marbles from your opponent's perspective?",
            "catchKey": -1,
            "catchResponse": -1,
            "catchResponseTime": -1,
            "pseudoRound": false,
            "trialTime": 15349
        },
        {
            "exptPart": "trial",
            "trialNumber": 6,
            "roleCurrent": "bullshitDetector",
            "marblesSampled": 10,
            "asymm": false,
            "probBullshitterRed": 0.2,
            "probBullshitDetectorRed": 0.2,
            "innerRed": 4,
            "outerRed": 26,
            "innerBlue": 16,
            "outerBlue": 104,
            "drawnRed": 1,
            "reportedDrawn": 0,
            "compLie": -1,
            "compUnifLie": true,
            "compDetect": 0.822265625,
            "callBS": true,
            "playerTrialScore": 5,
            "oppTrialScore": -5,
            "playerTotalScore": 22,
            "oppTotalScore": 3,
            "waitTime": 7090.926301754182,
            "responseTime": 7345,
            "catchQuestion": "What was the proportion of red to blue marbles from your opponent's perspective?",
            "catchKey": -1,
            "catchResponse": -1,
            "catchResponseTime": -1,
            "pseudoRound": false,
            "trialTime": 16652
        },
        {
            "exptPart": "trial",
            "trialNumber": 7,
            "roleCurrent": "bullshitter",
            "marblesSampled": 10,
            "asymm": true,
            "probBullshitterRed": 0.5,
            "probBullshitDetectorRed": 0.2,
            "innerRed": 4,
            "outerRed": 71,
            "innerBlue": 16,
            "outerBlue": 59,
            "drawnRed": 9,
            "reportedDrawn": 9,
            "compLie": -1,
            "compUnifLie": false,
            "compDetect": 0.8222003712000002,
            "callBS": true,
            "playerTrialScore": 9,
            "oppTrialScore": -4,
            "playerTotalScore": 31,
            "oppTotalScore": -1,
            "waitTime": 2707.933782588398,
            "responseTime": 5807,
            "catchQuestion": "What was the proportion of red to blue marbles from your opponent's perspective?",
            "catchKey": -1,
            "catchResponse": -1,
            "catchResponseTime": -1,
            "pseudoRound": true,
            "trialTime": 16740
        },
        {
            "exptPart": "trial",
            "trialNumber": 8,
            "roleCurrent": "bullshitDetector",
            "marblesSampled": 10,
            "asymm": true,
            "probBullshitterRed": 0.5,
            "probBullshitDetectorRed": 0.8,
            "innerRed": 16,
            "outerRed": 59,
            "innerBlue": 4,
            "outerBlue": 71,
            "drawnRed": 9,
            "reportedDrawn": 10,
            "compLie": 10,
            "compUnifLie": false,
            "compDetect": -1,
            "callBS": true,
            "playerTrialScore": 5,
            "oppTrialScore": -5,
            "playerTotalScore": 36,
            "oppTotalScore": -6,
            "waitTime": 6836.098467465697,
            "responseTime": 4293,
            "catchQuestion": "What was the proportion of red to blue marbles from your opponent's perspective?",
            "catchKey": -1,
            "catchResponse": -1,
            "catchResponseTime": -1,
            "pseudoRound": false,
            "trialTime": 13536
        },
        {
            "exptPart": "trial",
            "trialNumber": 9,
            "roleCurrent": "bullshitter",
            "marblesSampled": 10,
            "asymm": true,
            "probBullshitterRed": 0.5,
            "probBullshitDetectorRed": 0.2,
            "innerRed": 4,
            "outerRed": 71,
            "innerBlue": 16,
            "outerBlue": 59,
            "drawnRed": 4,
            "reportedDrawn": 2,
            "compLie": -1,
            "compUnifLie": false,
            "compDetect": 0.5,
            "callBS": false,
            "playerTrialScore": 2,
            "oppTrialScore": 8,
            "playerTotalScore": 38,
            "oppTotalScore": 2,
            "waitTime": 2198.9499790845384,
            "responseTime": 10808,
            "catchQuestion": "How many red marbles did you actually draw?",
            "catchKey": 4,
            "catchResponse": 4,
            "catchResponseTime": 4186,
            "pseudoRound": false,
            "trialTime": 23137
        },
        {
            "exptPart": "trial",
            "trialNumber": 10,
            "roleCurrent": "bullshitDetector",
            "marblesSampled": 10,
            "asymm": false,
            "probBullshitterRed": 0.8,
            "probBullshitDetectorRed": 0.8,
            "innerRed": 16,
            "outerRed": 104,
            "innerBlue": 4,
            "outerBlue": 26,
            "drawnRed": 7,
            "reportedDrawn": 5,
            "compLie": -1,
            "compUnifLie": false,
            "compDetect": 0.5,
            "callBS": false,
            "playerTrialScore": 5,
            "oppTrialScore": 5,
            "playerTotalScore": 43,
            "oppTotalScore": 7,
            "waitTime": 6687.653514455987,
            "responseTime": 2429,
            "catchQuestion": "How many red marbles did you actually draw?",
            "catchKey": -1,
            "catchResponse": -1,
            "catchResponseTime": -1,
            "pseudoRound": true,
            "trialTime": 13142
        },
        {
            "exptPart": "trial",
            "trialNumber": 11,
            "roleCurrent": "bullshitter",
            "marblesSampled": 10,
            "asymm": true,
            "probBullshitterRed": 0.5,
            "probBullshitDetectorRed": 0.2,
            "innerRed": 4,
            "outerRed": 71,
            "innerBlue": 16,
            "outerBlue": 59,
            "drawnRed": 7,
            "reportedDrawn": 8,
            "compLie": -1,
            "compUnifLie": false,
            "compDetect": 0.8221962752000003,
            "callBS": false,
            "playerTrialScore": 8,
            "oppTrialScore": 2,
            "playerTotalScore": 51,
            "oppTotalScore": 9,
            "waitTime": 2297.6377257391696,
            "responseTime": 5213,
            "catchQuestion": "How many red marbles did you actually draw?",
            "catchKey": 7,
            "catchResponse": 7,
            "catchResponseTime": 3074,
            "pseudoRound": false,
            "trialTime": 16166
        },
        {
            "exptPart": "trial",
            "trialNumber": 12,
            "roleCurrent": "bullshitDetector",
            "marblesSampled": 10,
            "asymm": true,
            "probBullshitterRed": 0.5,
            "probBullshitDetectorRed": 0.8,
            "innerRed": 16,
            "outerRed": 59,
            "innerBlue": 4,
            "outerBlue": 71,
            "drawnRed": 3,
            "reportedDrawn": 8,
            "compLie": 8,
            "compUnifLie": false,
            "compDetect": -1,
            "callBS": false,
            "playerTrialScore": 2,
            "oppTrialScore": 8,
            "playerTotalScore": 53,
            "oppTotalScore": 17,
            "waitTime": 6023.6410770691655,
            "responseTime": 2373,
            "catchQuestion": "How many red marbles did you actually draw?",
            "catchKey": -1,
            "catchResponse": -1,
            "catchResponseTime": -1,
            "pseudoRound": false,
            "trialTime": 10432
        },
        {
            "exptPart": "trial",
            "trialNumber": 13,
            "roleCurrent": "bullshitter",
            "marblesSampled": 10,
            "asymm": false,
            "probBullshitterRed": 0.8,
            "probBullshitDetectorRed": 0.8,
            "innerRed": 16,
            "outerRed": 104,
            "innerBlue": 4,
            "outerBlue": 26,
            "drawnRed": 6,
            "reportedDrawn": 9,
            "compLie": -1,
            "compUnifLie": false,
            "compDetect": 0.7684354560000002,
            "callBS": false,
            "playerTrialScore": 9,
            "oppTrialScore": 1,
            "playerTotalScore": 62,
            "oppTotalScore": 18,
            "waitTime": 2593.628627287563,
            "responseTime": 7773,
            "catchQuestion": "How many red marbles did you actually draw?",
            "catchKey": -1,
            "catchResponse": -1,
            "catchResponseTime": -1,
            "pseudoRound": false,
            "trialTime": 16100
        },
        {
            "exptPart": "trial",
            "trialNumber": 14,
            "roleCurrent": "bullshitDetector",
            "marblesSampled": 10,
            "asymm": true,
            "probBullshitterRed": 0.2,
            "probBullshitDetectorRed": 0.8,
            "innerRed": 16,
            "outerRed": 14,
            "innerBlue": 4,
            "outerBlue": 116,
            "drawnRed": 1,
            "reportedDrawn": 7,
            "compLie": 7,
            "compUnifLie": false,
            "compDetect": -1,
            "callBS": false,
            "playerTrialScore": 3,
            "oppTrialScore": 7,
            "playerTotalScore": 65,
            "oppTotalScore": 25,
            "waitTime": 5835.328358468079,
            "responseTime": 3908,
            "catchQuestion": "How many red marbles did you actually draw?",
            "catchKey": -1,
            "catchResponse": -1,
            "catchResponseTime": -1,
            "pseudoRound": false,
            "trialTime": 11741
        },
        {
            "exptPart": "trial",
            "trialNumber": 15,
            "roleCurrent": "bullshitter",
            "marblesSampled": 10,
            "asymm": true,
            "probBullshitterRed": 0.2,
            "probBullshitDetectorRed": 0.8,
            "innerRed": 16,
            "outerRed": 14,
            "innerBlue": 4,
            "outerBlue": 116,
            "drawnRed": 3,
            "reportedDrawn": 8,
            "compLie": -1,
            "compUnifLie": false,
            "compDetect": 0.5,
            "callBS": true,
            "playerTrialScore": -5,
            "oppTrialScore": 5,
            "playerTotalScore": 60,
            "oppTotalScore": 30,
            "waitTime": 2692.681895401247,
            "responseTime": 13273,
            "catchQuestion": "How many red marbles did you actually draw?",
            "catchKey": -1,
            "catchResponse": -1,
            "catchResponseTime": -1,
            "pseudoRound": true,
            "trialTime": 22062
        },
        {
            "exptPart": "trial",
            "trialNumber": 16,
            "roleCurrent": "bullshitDetector",
            "marblesSampled": 10,
            "asymm": false,
            "probBullshitterRed": 0.5,
            "probBullshitDetectorRed": 0.5,
            "innerRed": 10,
            "outerRed": 65,
            "innerBlue": 10,
            "outerBlue": 65,
            "drawnRed": 5,
            "reportedDrawn": 6,
            "compLie": 6,
            "compUnifLie": false,
            "compDetect": -1,
            "callBS": true,
            "playerTrialScore": 5,
            "oppTrialScore": -5,
            "playerTotalScore": 65,
            "oppTotalScore": 25,
            "waitTime": 7339.217826408081,
            "responseTime": 4014,
            "catchQuestion": "How many red marbles did you actually draw?",
            "catchKey": -1,
            "catchResponse": -1,
            "catchResponseTime": -1,
            "pseudoRound": false,
            "trialTime": 13504
        },
        {
            "exptPart": "trial",
            "trialNumber": 17,
            "roleCurrent": "bullshitter",
            "marblesSampled": 10,
            "asymm": false,
            "probBullshitterRed": 0.2,
            "probBullshitDetectorRed": 0.2,
            "innerRed": 4,
            "outerRed": 26,
            "innerBlue": 16,
            "outerBlue": 104,
            "drawnRed": 10,
            "reportedDrawn": 10,
            "compLie": -1,
            "compUnifLie": false,
            "compDetect": 0.8222004736000001,
            "callBS": true,
            "playerTrialScore": 10,
            "oppTrialScore": -5,
            "playerTotalScore": 75,
            "oppTotalScore": 20,
            "waitTime": 2260.0126906810387,
            "responseTime": 4840,
            "catchQuestion": "How many red marbles did you actually draw?",
            "catchKey": -1,
            "catchResponse": -1,
            "catchResponseTime": -1,
            "pseudoRound": true,
            "trialTime": 13165
        },
        {
            "exptPart": "trial",
            "trialNumber": 18,
            "roleCurrent": "bullshitDetector",
            "marblesSampled": 10,
            "asymm": true,
            "probBullshitterRed": 0.8,
            "probBullshitDetectorRed": 0.2,
            "innerRed": 4,
            "outerRed": 116,
            "innerBlue": 16,
            "outerBlue": 14,
            "drawnRed": 7,
            "reportedDrawn": 7,
            "compLie": 4,
            "compUnifLie": false,
            "compDetect": -1,
            "callBS": false,
            "playerTrialScore": 3,
            "oppTrialScore": 7,
            "playerTotalScore": 78,
            "oppTotalScore": 27,
            "waitTime": 6408.329820275497,
            "responseTime": 1873,
            "catchQuestion": "How many red marbles did you actually draw?",
            "catchKey": -1,
            "catchResponse": -1,
            "catchResponseTime": -1,
            "pseudoRound": false,
            "trialTime": 10008
        },
        {
            "exptPart": "trial",
            "trialNumber": 19,
            "roleCurrent": "bullshitter",
            "marblesSampled": 10,
            "asymm": true,
            "probBullshitterRed": 0.5,
            "probBullshitDetectorRed": 0.2,
            "innerRed": 4,
            "outerRed": 71,
            "innerBlue": 16,
            "outerBlue": 59,
            "drawnRed": 3,
            "reportedDrawn": 7,
            "compLie": -1,
            "compUnifLie": false,
            "compDetect": 0.8221225472000002,
            "callBS": true,
            "playerTrialScore": -5,
            "oppTrialScore": 5,
            "playerTotalScore": 73,
            "oppTotalScore": 32,
            "waitTime": 2603.8913450016385,
            "responseTime": 7413,
            "catchQuestion": "How many red marbles did you actually draw?",
            "catchKey": -1,
            "catchResponse": -1,
            "catchResponseTime": -1,
            "pseudoRound": false,
            "trialTime": 14830
        },
        {
            "exptPart": "trial",
            "trialNumber": 20,
            "roleCurrent": "bullshitDetector",
            "marblesSampled": 10,
            "asymm": false,
            "probBullshitterRed": 0.8,
            "probBullshitDetectorRed": 0.8,
            "innerRed": 16,
            "outerRed": 104,
            "innerBlue": 4,
            "outerBlue": 26,
            "drawnRed": 9,
            "reportedDrawn": 9,
            "compLie": -1,
            "compUnifLie": true,
            "compDetect": 0.8221225472000002,
            "callBS": true,
            "playerTrialScore": -4,
            "oppTrialScore": 9,
            "playerTotalScore": 69,
            "oppTotalScore": 41,
            "waitTime": 5972.463634515556,
            "responseTime": 7949,
            "catchQuestion": "How many red marbles did you actually draw?",
            "catchKey": -1,
            "catchResponse": -1,
            "catchResponseTime": -1,
            "pseudoRound": false,
            "trialTime": 17480
        },
        {
            "exptPart": "trial",
            "trialNumber": 21,
            "roleCurrent": "bullshitter",
            "marblesSampled": 10,
            "asymm": false,
            "probBullshitterRed": 0.2,
            "probBullshitDetectorRed": 0.2,
            "innerRed": 4,
            "outerRed": 26,
            "innerBlue": 16,
            "outerBlue": 104,
            "drawnRed": 5,
            "reportedDrawn": 1,
            "compLie": -1,
            "compUnifLie": false,
            "compDetect": 0.19801011199999963,
            "callBS": false,
            "playerTrialScore": 1,
            "oppTrialScore": 9,
            "playerTotalScore": 70,
            "oppTotalScore": 50,
            "waitTime": 2473.985558499658,
            "responseTime": 13080,
            "catchQuestion": "How many red marbles did you actually draw?",
            "catchKey": -1,
            "catchResponse": -1,
            "catchResponseTime": -1,
            "pseudoRound": false,
            "trialTime": 20310
        },
        {
            "exptPart": "trial",
            "trialNumber": 22,
            "roleCurrent": "bullshitDetector",
            "marblesSampled": 10,
            "asymm": true,
            "probBullshitterRed": 0.8,
            "probBullshitDetectorRed": 0.5,
            "innerRed": 10,
            "outerRed": 110,
            "innerBlue": 10,
            "outerBlue": 20,
            "drawnRed": 9,
            "reportedDrawn": 9,
            "compLie": 4,
            "compUnifLie": false,
            "compDetect": -1,
            "callBS": true,
            "playerTrialScore": -4,
            "oppTrialScore": 9,
            "playerTotalScore": 66,
            "oppTotalScore": 59,
            "waitTime": 7444.908326467079,
            "responseTime": 4998,
            "catchQuestion": "How many red marbles did you actually draw?",
            "catchKey": -1,
            "catchResponse": -1,
            "catchResponseTime": -1,
            "pseudoRound": false,
            "trialTime": 14342
        },
        {
            "exptPart": "trial",
            "trialNumber": 23,
            "roleCurrent": "bullshitter",
            "marblesSampled": 10,
            "asymm": false,
            "probBullshitterRed": 0.5,
            "probBullshitDetectorRed": 0.5,
            "innerRed": 10,
            "outerRed": 65,
            "innerBlue": 10,
            "outerBlue": 65,
            "drawnRed": 8,
            "reportedDrawn": 8,
            "compLie": -1,
            "compUnifLie": false,
            "compDetect": 0.8662109375,
            "callBS": true,
            "playerTrialScore": 8,
            "oppTrialScore": -3,
            "playerTotalScore": 74,
            "oppTotalScore": 56,
            "waitTime": 2670.157996392564,
            "responseTime": 7576,
            "catchQuestion": "How many red marbles did you actually draw?",
            "catchKey": -1,
            "catchResponse": -1,
            "catchResponseTime": -1,
            "pseudoRound": false,
            "trialTime": 15309
        },
        {
            "exptPart": "trial",
            "trialNumber": 24,
            "roleCurrent": "bullshitDetector",
            "marblesSampled": 10,
            "asymm": true,
            "probBullshitterRed": 0.2,
            "probBullshitDetectorRed": 0.8,
            "innerRed": 16,
            "outerRed": 14,
            "innerBlue": 4,
            "outerBlue": 116,
            "drawnRed": 3,
            "reportedDrawn": 3,
            "compLie": -1,
            "compUnifLie": false,
            "compDetect": 0.8662109375,
            "callBS": false,
            "playerTrialScore": 7,
            "oppTrialScore": 3,
            "playerTotalScore": 81,
            "oppTotalScore": 59,
            "waitTime": 6747.466646773312,
            "responseTime": 2170,
            "catchQuestion": "What was the proportion of red to blue marbles from your perspective?",
            "catchKey": 80,
            "catchResponse": "91",
            "catchResponseTime": 5354,
            "pseudoRound": true,
            "trialTime": 17671
        },
        {
            "exptPart": "trial",
            "trialNumber": 25,
            "roleCurrent": "bullshitter",
            "marblesSampled": 10,
            "asymm": false,
            "probBullshitterRed": 0.8,
            "probBullshitDetectorRed": 0.8,
            "innerRed": 16,
            "outerRed": 104,
            "innerBlue": 4,
            "outerBlue": 26,
            "drawnRed": 9,
            "reportedDrawn": 10,
            "compLie": -1,
            "compUnifLie": false,
            "compDetect": 0.8758096384000003,
            "callBS": true,
            "playerTrialScore": -5,
            "oppTrialScore": 5,
            "playerTotalScore": 76,
            "oppTotalScore": 64,
            "waitTime": 2671.0176021243074,
            "responseTime": 3447,
            "catchQuestion": "How many red marbles did you actually draw?",
            "catchKey": 9,
            "catchResponse": 9,
            "catchResponseTime": 3364,
            "pseudoRound": false,
            "trialTime": 16017
        },
        {
            "exptPart": "trial",
            "trialNumber": 26,
            "roleCurrent": "bullshitDetector",
            "marblesSampled": 10,
            "asymm": true,
            "probBullshitterRed": 0.8,
            "probBullshitDetectorRed": 0.2,
            "innerRed": 4,
            "outerRed": 116,
            "innerBlue": 16,
            "outerBlue": 14,
            "drawnRed": 10,
            "reportedDrawn": 10,
            "compLie": 5,
            "compUnifLie": false,
            "compDetect": -1,
            "callBS": false,
            "playerTrialScore": 0,
            "oppTrialScore": 10,
            "playerTotalScore": 76,
            "oppTotalScore": 74,
            "waitTime": 6322.431508993093,
            "responseTime": 6500,
            "catchQuestion": "How many red marbles did you actually draw?",
            "catchKey": -1,
            "catchResponse": -1,
            "catchResponseTime": -1,
            "pseudoRound": false,
            "trialTime": 15033
        },
        {
            "exptPart": "trial",
            "trialNumber": 27,
            "roleCurrent": "bullshitter",
            "marblesSampled": 10,
            "asymm": false,
            "probBullshitterRed": 0.5,
            "probBullshitDetectorRed": 0.5,
            "innerRed": 10,
            "outerRed": 65,
            "innerBlue": 10,
            "outerBlue": 65,
            "drawnRed": 2,
            "reportedDrawn": 2,
            "compLie": -1,
            "compUnifLie": false,
            "compDetect": -0.068359375,
            "callBS": false,
            "playerTrialScore": 2,
            "oppTrialScore": 8,
            "playerTotalScore": 78,
            "oppTotalScore": 82,
            "waitTime": 2084.8287226933717,
            "responseTime": 3247,
            "catchQuestion": "How many red marbles did you actually draw?",
            "catchKey": -1,
            "catchResponse": -1,
            "catchResponseTime": -1,
            "pseudoRound": false,
            "trialTime": 10092
        },
        {
            "exptPart": "trial",
            "trialNumber": 28,
            "roleCurrent": "bullshitDetector",
            "marblesSampled": 10,
            "asymm": false,
            "probBullshitterRed": 0.2,
            "probBullshitDetectorRed": 0.2,
            "innerRed": 4,
            "outerRed": 26,
            "innerBlue": 16,
            "outerBlue": 104,
            "drawnRed": 4,
            "reportedDrawn": 4,
            "compLie": 4,
            "compUnifLie": false,
            "compDetect": -1,
            "callBS": true,
            "playerTrialScore": 1,
            "oppTrialScore": 4,
            "playerTotalScore": 79,
            "oppTotalScore": 86,
            "waitTime": 6619.516252590018,
            "responseTime": 6999,
            "catchQuestion": "How many red marbles did you actually draw?",
            "catchKey": -1,
            "catchResponse": -1,
            "catchResponseTime": -1,
            "pseudoRound": false,
            "trialTime": 16432
        },
        {
            "exptPart": "trial",
            "trialNumber": 29,
            "roleCurrent": "bullshitter",
            "marblesSampled": 10,
            "asymm": true,
            "probBullshitterRed": 0.8,
            "probBullshitDetectorRed": 0.5,
            "innerRed": 10,
            "outerRed": 110,
            "innerBlue": 10,
            "outerBlue": 20,
            "drawnRed": 8,
            "reportedDrawn": 7,
            "compLie": -1,
            "compUnifLie": false,
            "compDetect": 0.822265625,
            "callBS": true,
            "playerTrialScore": -5,
            "oppTrialScore": 5,
            "playerTotalScore": 74,
            "oppTotalScore": 91,
            "waitTime": 2131.3091872079144,
            "responseTime": 8988,
            "catchQuestion": "How many red marbles did you actually draw?",
            "catchKey": -1,
            "catchResponse": -1,
            "catchResponseTime": -1,
            "pseudoRound": false,
            "trialTime": 16673
        },
        {
            "exptPart": "trial",
            "trialNumber": 30,
            "roleCurrent": "bullshitDetector",
            "marblesSampled": 10,
            "asymm": true,
            "probBullshitterRed": 0.2,
            "probBullshitDetectorRed": 0.8,
            "innerRed": 16,
            "outerRed": 14,
            "innerBlue": 4,
            "outerBlue": 116,
            "drawnRed": 2,
            "reportedDrawn": 10,
            "compLie": 10,
            "compUnifLie": false,
            "compDetect": -1,
            "callBS": false,
            "playerTrialScore": 0,
            "oppTrialScore": 10,
            "playerTotalScore": 74,
            "oppTotalScore": 101,
            "waitTime": 5870.1806070527855,
            "responseTime": 3182,
            "catchQuestion": "How many red marbles did you actually draw?",
            "catchKey": -1,
            "catchResponse": -1,
            "catchResponseTime": -1,
            "pseudoRound": false,
            "trialTime": 12345
        },
        {
            "exptPart": "trial",
            "trialNumber": 31,
            "roleCurrent": "bullshitter",
            "marblesSampled": 10,
            "asymm": true,
            "probBullshitterRed": 0.5,
            "probBullshitDetectorRed": 0.8,
            "innerRed": 16,
            "outerRed": 59,
            "innerBlue": 4,
            "outerBlue": 71,
            "drawnRed": 4,
            "reportedDrawn": 4,
            "compLie": -1,
            "compUnifLie": false,
            "compDetect": -0.11782097919999997,
            "callBS": false,
            "playerTrialScore": 4,
            "oppTrialScore": 6,
            "playerTotalScore": 78,
            "oppTotalScore": 107,
            "waitTime": 2207.6348826207095,
            "responseTime": 4176,
            "catchQuestion": "What was the proportion of red to blue marbles from your opponent's perspective?",
            "catchKey": 80,
            "catchResponse": "86",
            "catchResponseTime": 6794,
            "pseudoRound": false,
            "trialTime": 20230
        },
        {
            "exptPart": "trial",
            "trialNumber": 32,
            "roleCurrent": "bullshitDetector",
            "marblesSampled": 10,
            "asymm": true,
            "probBullshitterRed": 0.5,
            "probBullshitDetectorRed": 0.8,
            "innerRed": 16,
            "outerRed": 59,
            "innerBlue": 4,
            "outerBlue": 71,
            "drawnRed": 7,
            "reportedDrawn": 7,
            "compLie": 7,
            "compUnifLie": false,
            "compDetect": -1,
            "callBS": false,
            "playerTrialScore": 3,
            "oppTrialScore": 7,
            "playerTotalScore": 81,
            "oppTotalScore": 114,
            "waitTime": 5803.238654348985,
            "responseTime": 2818,
            "catchQuestion": "What was the proportion of red to blue marbles from your opponent's perspective?",
            "catchKey": -1,
            "catchResponse": -1,
            "catchResponseTime": -1,
            "pseudoRound": false,
            "trialTime": 11725
        },
        {
            "exptPart": "trial",
            "trialNumber": 33,
            "roleCurrent": "bullshitter",
            "marblesSampled": 10,
            "asymm": false,
            "probBullshitterRed": 0.5,
            "probBullshitDetectorRed": 0.5,
            "innerRed": 10,
            "outerRed": 65,
            "innerBlue": 10,
            "outerBlue": 65,
            "drawnRed": 8,
            "reportedDrawn": 8,
            "compLie": -1,
            "compUnifLie": false,
            "compDetect": 0.8662109375,
            "callBS": true,
            "playerTrialScore": 8,
            "oppTrialScore": -3,
            "playerTotalScore": 89,
            "oppTotalScore": 111,
            "waitTime": 2464.231695063111,
            "responseTime": 14739,
            "catchQuestion": "What was the proportion of red to blue marbles from your opponent's perspective?",
            "catchKey": -1,
            "catchResponse": -1,
            "catchResponseTime": -1,
            "pseudoRound": true,
            "trialTime": 22804
        },
        {
            "exptPart": "trial",
            "trialNumber": 34,
            "roleCurrent": "bullshitDetector",
            "marblesSampled": 10,
            "asymm": false,
            "probBullshitterRed": 0.8,
            "probBullshitDetectorRed": 0.8,
            "innerRed": 16,
            "outerRed": 104,
            "innerBlue": 4,
            "outerBlue": 26,
            "drawnRed": 7,
            "reportedDrawn": 8,
            "compLie": -1,
            "compUnifLie": true,
            "compDetect": 0.8662109375,
            "callBS": false,
            "playerTrialScore": 2,
            "oppTrialScore": 8,
            "playerTotalScore": 91,
            "oppTotalScore": 119,
            "waitTime": 5301.571384089406,
            "responseTime": 2443,
            "catchQuestion": "What was the proportion of red to blue marbles from your opponent's perspective?",
            "catchKey": "NA",
            "catchResponse": "74",
            "catchResponseTime": 3692,
            "pseudoRound": false,
            "trialTime": 13588
        },
        {
            "exptPart": "trial",
            "trialNumber": 35,
            "roleCurrent": "bullshitter",
            "marblesSampled": 10,
            "asymm": false,
            "probBullshitterRed": 0.8,
            "probBullshitDetectorRed": 0.8,
            "innerRed": 16,
            "outerRed": 104,
            "innerBlue": 4,
            "outerBlue": 26,
            "drawnRed": 9,
            "reportedDrawn": 9,
            "compLie": -1,
            "compUnifLie": false,
            "compDetect": 0.7684354560000002,
            "callBS": true,
            "playerTrialScore": 9,
            "oppTrialScore": -4,
            "playerTotalScore": 100,
            "oppTotalScore": 115,
            "waitTime": 2226.294772921535,
            "responseTime": 3129,
            "catchQuestion": "What was the proportion of red to blue marbles from your opponent's perspective?",
            "catchKey": -1,
            "catchResponse": -1,
            "catchResponseTime": -1,
            "pseudoRound": false,
            "trialTime": 11470
        },
        {
            "exptPart": "trial",
            "trialNumber": 36,
            "roleCurrent": "bullshitDetector",
            "marblesSampled": 10,
            "asymm": true,
            "probBullshitterRed": 0.2,
            "probBullshitDetectorRed": 0.5,
            "innerRed": 10,
            "outerRed": 20,
            "innerBlue": 10,
            "outerBlue": 110,
            "drawnRed": 0,
            "reportedDrawn": 5,
            "compLie": 5,
            "compUnifLie": false,
            "compDetect": -1,
            "callBS": false,
            "playerTrialScore": 5,
            "oppTrialScore": 5,
            "playerTotalScore": 105,
            "oppTotalScore": 120,
            "waitTime": 6120.032692915053,
            "responseTime": 6983,
            "catchQuestion": "What was the proportion of red to blue marbles from your opponent's perspective?",
            "catchKey": -1,
            "catchResponse": -1,
            "catchResponseTime": -1,
            "pseudoRound": false,
            "trialTime": 14935
        },
        {
            "exptPart": "trial",
            "trialNumber": 37,
            "roleCurrent": "bullshitter",
            "marblesSampled": 10,
            "asymm": true,
            "probBullshitterRed": 0.2,
            "probBullshitDetectorRed": 0.8,
            "innerRed": 16,
            "outerRed": 14,
            "innerBlue": 4,
            "outerBlue": 116,
            "drawnRed": 4,
            "reportedDrawn": 4,
            "compLie": -1,
            "compUnifLie": false,
            "compDetect": -0.11782097919999997,
            "callBS": false,
            "playerTrialScore": 4,
            "oppTrialScore": 6,
            "playerTotalScore": 109,
            "oppTotalScore": 126,
            "waitTime": 3039.365416926111,
            "responseTime": 5213,
            "catchQuestion": "What was the proportion of red to blue marbles from your opponent's perspective?",
            "catchKey": -1,
            "catchResponse": -1,
            "catchResponseTime": -1,
            "pseudoRound": false,
            "trialTime": 13754
        },
        {
            "exptPart": "trial",
            "trialNumber": 38,
            "roleCurrent": "bullshitDetector",
            "marblesSampled": 10,
            "asymm": true,
            "probBullshitterRed": 0.2,
            "probBullshitDetectorRed": 0.5,
            "innerRed": 10,
            "outerRed": 20,
            "innerBlue": 10,
            "outerBlue": 110,
            "drawnRed": 5,
            "reportedDrawn": 6,
            "compLie": 6,
            "compUnifLie": false,
            "compDetect": -1,
            "callBS": false,
            "playerTrialScore": 4,
            "oppTrialScore": 6,
            "playerTotalScore": 113,
            "oppTotalScore": 132,
            "waitTime": 6112.588675459008,
            "responseTime": 2537,
            "catchQuestion": "What was the proportion of red to blue marbles from your opponent's perspective?",
            "catchKey": -1,
            "catchResponse": -1,
            "catchResponseTime": -1,
            "pseudoRound": false,
            "trialTime": 11090
        },
        {
            "exptPart": "trial",
            "trialNumber": 39,
            "roleCurrent": "bullshitter",
            "marblesSampled": 10,
            "asymm": false,
            "probBullshitterRed": 0.8,
            "probBullshitDetectorRed": 0.8,
            "innerRed": 16,
            "outerRed": 104,
            "innerBlue": 4,
            "outerBlue": 26,
            "drawnRed": 8,
            "reportedDrawn": 8,
            "compLie": -1,
            "compUnifLie": false,
            "compDetect": 0.5,
            "callBS": true,
            "playerTrialScore": 8,
            "oppTrialScore": -3,
            "playerTotalScore": 121,
            "oppTotalScore": 129,
            "waitTime": 2168.7884301380277,
            "responseTime": 3500,
            "catchQuestion": "What was the proportion of red to blue marbles from your perspective?",
            "catchKey": 80,
            "catchResponse": "88",
            "catchResponseTime": 5259,
            "pseudoRound": false,
            "trialTime": 20431
        },
        {
            "exptPart": "trial",
            "trialNumber": 40,
            "roleCurrent": "bullshitDetector",
            "marblesSampled": 10,
            "asymm": false,
            "probBullshitterRed": 0.2,
            "probBullshitDetectorRed": 0.2,
            "innerRed": 4,
            "outerRed": 26,
            "innerBlue": 16,
            "outerBlue": 104,
            "drawnRed": 1,
            "reportedDrawn": 2,
            "compLie": 2,
            "compUnifLie": false,
            "compDetect": -1,
            "callBS": false,
            "playerTrialScore": 8,
            "oppTrialScore": 2,
            "playerTotalScore": 129,
            "oppTotalScore": 131,
            "waitTime": 5597.120779281802,
            "responseTime": 3843,
            "catchQuestion": "What was the proportion of red to blue marbles from your perspective?",
            "catchKey": -1,
            "catchResponse": -1,
            "catchResponseTime": -1,
            "pseudoRound": false,
            "trialTime": 12469
        },
        {
            "exptPart": "trial",
            "trialNumber": 41,
            "roleCurrent": "bullshitter",
            "marblesSampled": 10,
            "asymm": true,
            "probBullshitterRed": 0.5,
            "probBullshitDetectorRed": 0.2,
            "innerRed": 4,
            "outerRed": 71,
            "innerBlue": 16,
            "outerBlue": 59,
            "drawnRed": 5,
            "reportedDrawn": 5,
            "compLie": -1,
            "compUnifLie": false,
            "compDetect": 0.8158310912000003,
            "callBS": true,
            "playerTrialScore": 5,
            "oppTrialScore": 0,
            "playerTotalScore": 134,
            "oppTotalScore": 131,
            "waitTime": 2798.707149408039,
            "responseTime": 5477,
            "catchQuestion": "What was the proportion of red to blue marbles from your perspective?",
            "catchKey": -1,
            "catchResponse": -1,
            "catchResponseTime": -1,
            "pseudoRound": false,
            "trialTime": 13823
        },
        {
            "exptPart": "trial",
            "trialNumber": 42,
            "roleCurrent": "bullshitDetector",
            "marblesSampled": 10,
            "asymm": true,
            "probBullshitterRed": 0.2,
            "probBullshitDetectorRed": 0.5,
            "innerRed": 10,
            "outerRed": 20,
            "innerBlue": 10,
            "outerBlue": 110,
            "drawnRed": 2,
            "reportedDrawn": 2,
            "compLie": -1,
            "compUnifLie": false,
            "compDetect": 0.8158310912000003,
            "callBS": false,
            "playerTrialScore": 8,
            "oppTrialScore": 2,
            "playerTotalScore": 142,
            "oppTotalScore": 133,
            "waitTime": 6263.357925788072,
            "responseTime": 15533,
            "catchQuestion": "What was the proportion of red to blue marbles from your perspective?",
            "catchKey": -1,
            "catchResponse": -1,
            "catchResponseTime": -1,
            "pseudoRound": true,
            "trialTime": 23708
        },
        {
            "exptPart": "trial",
            "trialNumber": 43,
            "roleCurrent": "bullshitter",
            "marblesSampled": 10,
            "asymm": true,
            "probBullshitterRed": 0.2,
            "probBullshitDetectorRed": 0.8,
            "innerRed": 16,
            "outerRed": 14,
            "innerBlue": 4,
            "outerBlue": 116,
            "drawnRed": 4,
            "reportedDrawn": 7,
            "compLie": -1,
            "compUnifLie": false,
            "compDetect": 0.19801011199999996,
            "callBS": false,
            "playerTrialScore": 7,
            "oppTrialScore": 3,
            "playerTotalScore": 149,
            "oppTotalScore": 136,
            "waitTime": 2290.9073581879584,
            "responseTime": 4944,
            "catchQuestion": "What was the proportion of red to blue marbles from your perspective?",
            "catchKey": -1,
            "catchResponse": -1,
            "catchResponseTime": -1,
            "pseudoRound": true,
            "trialTime": 12888
        },
        {
            "exptPart": "trial",
            "trialNumber": 44,
            "roleCurrent": "bullshitDetector",
            "marblesSampled": 10,
            "asymm": false,
            "probBullshitterRed": 0.5,
            "probBullshitDetectorRed": 0.5,
            "innerRed": 10,
            "outerRed": 65,
            "innerBlue": 10,
            "outerBlue": 65,
            "drawnRed": 5,
            "reportedDrawn": 5,
            "compLie": 4,
            "compUnifLie": false,
            "compDetect": -1,
            "callBS": false,
            "playerTrialScore": 5,
            "oppTrialScore": 5,
            "playerTotalScore": 154,
            "oppTotalScore": 141,
            "waitTime": 5798.5190764937,
            "responseTime": 8329,
            "catchQuestion": "How many red marbles did your opponent report drawing?",
            "catchKey": 5,
            "catchResponse": 5,
            "catchResponseTime": 4795,
            "pseudoRound": false,
            "trialTime": 21045
        },
        {
            "exptPart": "trial",
            "trialNumber": 45,
            "roleCurrent": "bullshitter",
            "marblesSampled": 10,
            "asymm": true,
            "probBullshitterRed": 0.5,
            "probBullshitDetectorRed": 0.2,
            "innerRed": 4,
            "outerRed": 71,
            "innerBlue": 16,
            "outerBlue": 59,
            "drawnRed": 2,
            "reportedDrawn": 2,
            "compLie": -1,
            "compUnifLie": false,
            "compDetect": 0.5,
            "callBS": true,
            "playerTrialScore": 2,
            "oppTrialScore": 3,
            "playerTotalScore": 156,
            "oppTotalScore": 144,
            "waitTime": 3000.290784376047,
            "responseTime": 3941,
            "catchQuestion": "What was the proportion of red to blue marbles from your perspective?",
            "catchKey": 50,
            "catchResponse": "21",
            "catchResponseTime": 5013,
            "pseudoRound": true,
            "trialTime": 28395
        },
        {
            "exptPart": "trial",
            "trialNumber": 46,
            "roleCurrent": "bullshitDetector",
            "marblesSampled": 10,
            "asymm": true,
            "probBullshitterRed": 0.8,
            "probBullshitDetectorRed": 0.5,
            "innerRed": 10,
            "outerRed": 110,
            "innerBlue": 10,
            "outerBlue": 20,
            "drawnRed": 10,
            "reportedDrawn": 10,
            "compLie": 4,
            "compUnifLie": false,
            "compDetect": -1,
            "callBS": true,
            "playerTrialScore": -5,
            "oppTrialScore": 10,
            "playerTotalScore": 151,
            "oppTotalScore": 154,
            "waitTime": 5684.161568514262,
            "responseTime": 3950,
            "catchQuestion": "What was the proportion of red to blue marbles from your perspective?",
            "catchKey": -1,
            "catchResponse": -1,
            "catchResponseTime": -1,
            "pseudoRound": false,
            "trialTime": 11519
        },
        {
            "exptPart": "trial",
            "trialNumber": 47,
            "roleCurrent": "bullshitter",
            "marblesSampled": 10,
            "asymm": false,
            "probBullshitterRed": 0.8,
            "probBullshitDetectorRed": 0.8,
            "innerRed": 16,
            "outerRed": 104,
            "innerBlue": 4,
            "outerBlue": 26,
            "drawnRed": 7,
            "reportedDrawn": 6,
            "compLie": -1,
            "compUnifLie": false,
            "compDetect": -0.0033164800000000383,
            "callBS": false,
            "playerTrialScore": 6,
            "oppTrialScore": 4,
            "playerTotalScore": 157,
            "oppTotalScore": 158,
            "waitTime": 2462.984252740437,
            "responseTime": 5330,
            "catchQuestion": "What was the proportion of red to blue marbles from your perspective?",
            "catchKey": -1,
            "catchResponse": -1,
            "catchResponseTime": -1,
            "pseudoRound": true,
            "trialTime": 12558
        },
        {
            "exptPart": "trial",
            "trialNumber": 48,
            "roleCurrent": "bullshitDetector",
            "marblesSampled": 10,
            "asymm": false,
            "probBullshitterRed": 0.5,
            "probBullshitDetectorRed": 0.5,
            "innerRed": 10,
            "outerRed": 65,
            "innerBlue": 10,
            "outerBlue": 65,
            "drawnRed": 4,
            "reportedDrawn": 5,
            "compLie": 5,
            "compUnifLie": false,
            "compDetect": -1,
            "callBS": false,
            "playerTrialScore": 5,
            "oppTrialScore": 5,
            "playerTotalScore": 162,
            "oppTotalScore": 163,
            "waitTime": 6656.084116897013,
            "responseTime": 2438,
            "catchQuestion": "What was the proportion of red to blue marbles from your perspective?",
            "catchKey": -1,
            "catchResponse": -1,
            "catchResponseTime": -1,
            "pseudoRound": false,
            "trialTime": 10900
        },
        {
            "exptPart": "trial",
            "trialNumber": 49,
            "roleCurrent": "bullshitter",
            "marblesSampled": 10,
            "asymm": true,
            "probBullshitterRed": 0.5,
            "probBullshitDetectorRed": 0.2,
            "innerRed": 4,
            "outerRed": 71,
            "innerBlue": 16,
            "outerBlue": 59,
            "drawnRed": 4,
            "reportedDrawn": 4,
            "compLie": -1,
            "compUnifLie": false,
            "compDetect": 0.7894069760000003,
            "callBS": true,
            "playerTrialScore": 4,
            "oppTrialScore": 1,
            "playerTotalScore": 166,
            "oppTotalScore": 164,
            "waitTime": 2576.4410725153693,
            "responseTime": 5641,
            "catchQuestion": "What was the proportion of red to blue marbles from your perspective?",
            "catchKey": -1,
            "catchResponse": -1,
            "catchResponseTime": -1,
            "pseudoRound": false,
            "trialTime": 14401
        },
        {
            "exptPart": "trial",
            "trialNumber": 50,
            "roleCurrent": "bullshitDetector",
            "marblesSampled": 10,
            "asymm": false,
            "probBullshitterRed": 0.2,
            "probBullshitDetectorRed": 0.2,
            "innerRed": 4,
            "outerRed": 26,
            "innerBlue": 16,
            "outerBlue": 104,
            "drawnRed": 3,
            "reportedDrawn": 3,
            "compLie": 1,
            "compUnifLie": false,
            "compDetect": -1,
            "callBS": true,
            "playerTrialScore": 2,
            "oppTrialScore": 3,
            "playerTotalScore": 168,
            "oppTotalScore": 167,
            "waitTime": 6899.445044953312,
            "responseTime": 2673,
            "catchQuestion": "What was the proportion of red to blue marbles from your perspective?",
            "catchKey": -1,
            "catchResponse": -1,
            "catchResponseTime": -1,
            "pseudoRound": false,
            "trialTime": 12380
        },
        {
            "exptPart": "trial",
            "trialNumber": 51,
            "roleCurrent": "bullshitter",
            "marblesSampled": 10,
            "asymm": true,
            "probBullshitterRed": 0.8,
            "probBullshitDetectorRed": 0.2,
            "innerRed": 4,
            "outerRed": 116,
            "innerBlue": 16,
            "outerBlue": 14,
            "drawnRed": 1,
            "reportedDrawn": 1,
            "compLie": -1,
            "compUnifLie": false,
            "compDetect": 0.19801011199999963,
            "callBS": false,
            "playerTrialScore": 1,
            "oppTrialScore": 9,
            "playerTotalScore": 169,
            "oppTotalScore": 176,
            "waitTime": 2595.6878580998064,
            "responseTime": 3110,
            "catchQuestion": "What was the proportion of red to blue marbles from your perspective?",
            "catchKey": -1,
            "catchResponse": -1,
            "catchResponseTime": -1,
            "pseudoRound": true,
            "trialTime": 11038
        },
        {
            "exptPart": "trial",
            "trialNumber": 52,
            "roleCurrent": "bullshitDetector",
            "marblesSampled": 10,
            "asymm": true,
            "probBullshitterRed": 0.8,
            "probBullshitDetectorRed": 0.5,
            "innerRed": 10,
            "outerRed": 110,
            "innerBlue": 10,
            "outerBlue": 20,
            "drawnRed": 8,
            "reportedDrawn": 8,
            "compLie": 8,
            "compUnifLie": false,
            "compDetect": -1,
            "callBS": false,
            "playerTrialScore": 2,
            "oppTrialScore": 8,
            "playerTotalScore": 171,
            "oppTotalScore": 184,
            "waitTime": 7495.7273859756315,
            "responseTime": 2023,
            "catchQuestion": "What was the proportion of red to blue marbles from your perspective?",
            "catchKey": -1,
            "catchResponse": -1,
            "catchResponseTime": -1,
            "pseudoRound": false,
            "trialTime": 11250
        },
        {
            "exptPart": "trial",
            "trialNumber": 53,
            "roleCurrent": "bullshitter",
            "marblesSampled": 10,
            "asymm": true,
            "probBullshitterRed": 0.2,
            "probBullshitDetectorRed": 0.8,
            "innerRed": 16,
            "outerRed": 14,
            "innerBlue": 4,
            "outerBlue": 116,
            "drawnRed": 2,
            "reportedDrawn": 8,
            "compLie": -1,
            "compUnifLie": false,
            "compDetect": 0.5,
            "callBS": false,
            "playerTrialScore": 8,
            "oppTrialScore": 2,
            "playerTotalScore": 179,
            "oppTotalScore": 186,
            "waitTime": 2084.843106501249,
            "responseTime": 8484,
            "catchQuestion": "What was the proportion of red to blue marbles from your perspective?",
            "catchKey": -1,
            "catchResponse": -1,
            "catchResponseTime": -1,
            "pseudoRound": false,
            "trialTime": 16972
        },
        {
            "exptPart": "trial",
            "trialNumber": 54,
            "roleCurrent": "bullshitDetector",
            "marblesSampled": 10,
            "asymm": false,
            "probBullshitterRed": 0.8,
            "probBullshitDetectorRed": 0.8,
            "innerRed": 16,
            "outerRed": 104,
            "innerBlue": 4,
            "outerBlue": 26,
            "drawnRed": 8,
            "reportedDrawn": 8,
            "compLie": 7,
            "compUnifLie": false,
            "compDetect": -1,
            "callBS": true,
            "playerTrialScore": -3,
            "oppTrialScore": 8,
            "playerTotalScore": 176,
            "oppTotalScore": 194,
            "waitTime": 5337.5215616544865,
            "responseTime": 2709,
            "catchQuestion": "What was the proportion of red to blue marbles from your perspective?",
            "catchKey": -1,
            "catchResponse": -1,
            "catchResponseTime": -1,
            "pseudoRound": false,
            "trialTime": 9856
        },
        {
            "exptPart": "trial",
            "trialNumber": 55,
            "roleCurrent": "bullshitter",
            "marblesSampled": 10,
            "asymm": false,
            "probBullshitterRed": 0.5,
            "probBullshitDetectorRed": 0.5,
            "innerRed": 10,
            "outerRed": 65,
            "innerBlue": 10,
            "outerBlue": 65,
            "drawnRed": 6,
            "reportedDrawn": 5,
            "compLie": -1,
            "compUnifLie": false,
            "compDetect": 0.5,
            "callBS": false,
            "playerTrialScore": 5,
            "oppTrialScore": 5,
            "playerTotalScore": 181,
            "oppTotalScore": 199,
            "waitTime": 2484.0100228335214,
            "responseTime": 32505,
            "catchQuestion": "What was the proportion of red to blue marbles from your perspective?",
            "catchKey": -1,
            "catchResponse": -1,
            "catchResponseTime": -1,
            "pseudoRound": false,
            "trialTime": 44714
        },
        {
            "exptPart": "trial",
            "trialNumber": 56,
            "roleCurrent": "bullshitDetector",
            "marblesSampled": 10,
            "asymm": true,
            "probBullshitterRed": 0.2,
            "probBullshitDetectorRed": 0.5,
            "innerRed": 10,
            "outerRed": 20,
            "innerBlue": 10,
            "outerBlue": 110,
            "drawnRed": 3,
            "reportedDrawn": 4,
            "compLie": 4,
            "compUnifLie": false,
            "compDetect": -1,
            "callBS": false,
            "playerTrialScore": 6,
            "oppTrialScore": 4,
            "playerTotalScore": 187,
            "oppTotalScore": 203,
            "waitTime": 5252.422225609582,
            "responseTime": 2236,
            "catchQuestion": "What was the proportion of red to blue marbles from your perspective?",
            "catchKey": -1,
            "catchResponse": -1,
            "catchResponseTime": -1,
            "pseudoRound": false,
            "trialTime": 9287
        },
        {
            "exptPart": "trial",
            "trialNumber": 57,
            "roleCurrent": "bullshitter",
            "marblesSampled": 10,
            "asymm": true,
            "probBullshitterRed": 0.5,
            "probBullshitDetectorRed": 0.2,
            "innerRed": 4,
            "outerRed": 71,
            "innerBlue": 16,
            "outerBlue": 59,
            "drawnRed": 3,
            "reportedDrawn": 3,
            "compLie": -1,
            "compUnifLie": false,
            "compDetect": 0.7013265920000002,
            "callBS": true,
            "playerTrialScore": 3,
            "oppTrialScore": 2,
            "playerTotalScore": 190,
            "oppTotalScore": 205,
            "waitTime": 3168.4906187160927,
            "responseTime": 4147,
            "catchQuestion": "What was the proportion of red to blue marbles from your perspective?",
            "catchKey": 50,
            "catchResponse": "10",
            "catchResponseTime": 6975,
            "pseudoRound": false,
            "trialTime": 19043
        },
        {
            "exptPart": "trial",
            "trialNumber": 58,
            "roleCurrent": "bullshitDetector",
            "marblesSampled": 10,
            "asymm": true,
            "probBullshitterRed": 0.5,
            "probBullshitDetectorRed": 0.8,
            "innerRed": 16,
            "outerRed": 59,
            "innerBlue": 4,
            "outerBlue": 71,
            "drawnRed": 7,
            "reportedDrawn": 9,
            "compLie": 9,
            "compUnifLie": false,
            "compDetect": -1,
            "callBS": true,
            "playerTrialScore": 5,
            "oppTrialScore": -5,
            "playerTotalScore": 195,
            "oppTotalScore": 200,
            "waitTime": 5648.797778132341,
            "responseTime": 14232,
            "catchQuestion": "What was the proportion of red to blue marbles from your perspective?",
            "catchKey": -1,
            "catchResponse": -1,
            "catchResponseTime": -1,
            "pseudoRound": false,
            "trialTime": 22329
        },
        {
            "exptPart": "trial",
            "trialNumber": 59,
            "roleCurrent": "bullshitter",
            "marblesSampled": 10,
            "asymm": true,
            "probBullshitterRed": 0.2,
            "probBullshitDetectorRed": 0.5,
            "innerRed": 10,
            "outerRed": 20,
            "innerBlue": 10,
            "outerBlue": 110,
            "drawnRed": 0,
            "reportedDrawn": 0,
            "compLie": -1,
            "compUnifLie": false,
            "compDetect": -0.1220703125,
            "callBS": false,
            "playerTrialScore": 0,
            "oppTrialScore": 10,
            "playerTotalScore": 195,
            "oppTotalScore": 210,
            "waitTime": 2168.6120244423264,
            "responseTime": 2879,
            "catchQuestion": "What was the proportion of red to blue marbles from your perspective?",
            "catchKey": -1,
            "catchResponse": -1,
            "catchResponseTime": -1,
            "pseudoRound": false,
            "trialTime": 15418
        },
        {
            "exptPart": "trial",
            "trialNumber": 60,
            "roleCurrent": "bullshitDetector",
            "marblesSampled": 10,
            "asymm": true,
            "probBullshitterRed": 0.8,
            "probBullshitDetectorRed": 0.2,
            "innerRed": 4,
            "outerRed": 116,
            "innerBlue": 16,
            "outerBlue": 14,
            "drawnRed": 6,
            "reportedDrawn": 6,
            "compLie": 1,
            "compUnifLie": false,
            "compDetect": -1,
            "callBS": false,
            "playerTrialScore": 4,
            "oppTrialScore": 6,
            "playerTotalScore": 199,
            "oppTotalScore": 216,
            "waitTime": 5235.743344691493,
            "responseTime": 4514,
            "catchQuestion": "What was the proportion of red to blue marbles from your perspective?",
            "catchKey": -1,
            "catchResponse": -1,
            "catchResponseTime": -1,
            "pseudoRound": false,
            "trialTime": 12208
        },
        {
            "exptPart": "trial",
            "trialNumber": 61,
            "roleCurrent": "bullshitter",
            "marblesSampled": 10,
            "asymm": false,
            "probBullshitterRed": 0.8,
            "probBullshitDetectorRed": 0.8,
            "innerRed": 16,
            "outerRed": 104,
            "innerBlue": 4,
            "outerBlue": 26,
            "drawnRed": 9,
            "reportedDrawn": 9,
            "compLie": -1,
            "compUnifLie": false,
            "compDetect": 0.7684354560000002,
            "callBS": false,
            "playerTrialScore": 9,
            "oppTrialScore": 1,
            "playerTotalScore": 208,
            "oppTotalScore": 217,
            "waitTime": 3171.539994704889,
            "responseTime": 2754,
            "catchQuestion": "What was the proportion of red to blue marbles from your perspective?",
            "catchKey": -1,
            "catchResponse": -1,
            "catchResponseTime": -1,
            "pseudoRound": false,
            "trialTime": 10886
        },
        {
            "exptPart": "trial",
            "trialNumber": 62,
            "roleCurrent": "bullshitDetector",
            "marblesSampled": 10,
            "asymm": false,
            "probBullshitterRed": 0.8,
            "probBullshitDetectorRed": 0.8,
            "innerRed": 16,
            "outerRed": 104,
            "innerBlue": 4,
            "outerBlue": 26,
            "drawnRed": 7,
            "reportedDrawn": 9,
            "compLie": -1,
            "compUnifLie": true,
            "compDetect": 0.7684354560000002,
            "callBS": false,
            "playerTrialScore": 1,
            "oppTrialScore": 9,
            "playerTotalScore": 209,
            "oppTotalScore": 226,
            "waitTime": 5962.193836869167,
            "responseTime": 3419,
            "catchQuestion": "What was the proportion of red to blue marbles from your perspective?",
            "catchKey": -1,
            "catchResponse": -1,
            "catchResponseTime": -1,
            "pseudoRound": false,
            "trialTime": 11208
        },
        {
            "exptPart": "trial",
            "trialNumber": 63,
            "roleCurrent": "bullshitter",
            "marblesSampled": 10,
            "asymm": true,
            "probBullshitterRed": 0.2,
            "probBullshitDetectorRed": 0.5,
            "innerRed": 10,
            "outerRed": 20,
            "innerBlue": 10,
            "outerBlue": 110,
            "drawnRed": 0,
            "reportedDrawn": 0,
            "compLie": -1,
            "compUnifLie": false,
            "compDetect": -0.1220703125,
            "callBS": false,
            "playerTrialScore": 0,
            "oppTrialScore": 10,
            "playerTotalScore": 209,
            "oppTotalScore": 236,
            "waitTime": 3202.3228617514214,
            "responseTime": 2697,
            "catchQuestion": "What was the proportion of red to blue marbles from your perspective?",
            "catchKey": -1,
            "catchResponse": -1,
            "catchResponseTime": -1,
            "pseudoRound": false,
            "trialTime": 15982
        },
        {
            "exptPart": "trial",
            "trialNumber": 64,
            "roleCurrent": "bullshitDetector",
            "marblesSampled": 10,
            "asymm": false,
            "probBullshitterRed": 0.8,
            "probBullshitDetectorRed": 0.8,
            "innerRed": 16,
            "outerRed": 104,
            "innerBlue": 4,
            "outerBlue": 26,
            "drawnRed": 7,
            "reportedDrawn": 4,
            "compLie": -1,
            "compUnifLie": false,
            "compDetect": -0.1220703125,
            "callBS": false,
            "playerTrialScore": 6,
            "oppTrialScore": 4,
            "playerTotalScore": 215,
            "oppTotalScore": 240,
            "waitTime": 6877.133593409757,
            "responseTime": 5811,
            "catchQuestion": "What was the proportion of red to blue marbles from your perspective?",
            "catchKey": -1,
            "catchResponse": -1,
            "catchResponseTime": -1,
            "pseudoRound": true,
            "trialTime": 14504
        },
        {
            "exptPart": "trial",
            "trialNumber": 65,
            "roleCurrent": "bullshitter",
            "marblesSampled": 10,
            "asymm": false,
            "probBullshitterRed": 0.2,
            "probBullshitDetectorRed": 0.2,
            "innerRed": 4,
            "outerRed": 26,
            "innerBlue": 16,
            "outerBlue": 104,
            "drawnRed": 5,
            "reportedDrawn": 5,
            "compLie": -1,
            "compUnifLie": false,
            "compDetect": 0.8158310912000003,
            "callBS": false,
            "playerTrialScore": 5,
            "oppTrialScore": 5,
            "playerTotalScore": 220,
            "oppTotalScore": 245,
            "waitTime": 3233.697170436861,
            "responseTime": 16631,
            "catchQuestion": "What was the proportion of red to blue marbles from your opponent's perspective?",
            "catchKey": 20,
            "catchResponse": "61",
            "catchResponseTime": 10835,
            "pseudoRound": false,
            "trialTime": 50859
        },
        {
            "exptPart": "trial",
            "trialNumber": 66,
            "roleCurrent": "bullshitDetector",
            "marblesSampled": 10,
            "asymm": true,
            "probBullshitterRed": 0.5,
            "probBullshitDetectorRed": 0.8,
            "innerRed": 16,
            "outerRed": 59,
            "innerBlue": 4,
            "outerBlue": 71,
            "drawnRed": 6,
            "reportedDrawn": 8,
            "compLie": 8,
            "compUnifLie": false,
            "compDetect": -1,
            "callBS": false,
            "playerTrialScore": 2,
            "oppTrialScore": 8,
            "playerTotalScore": 222,
            "oppTotalScore": 253,
            "waitTime": 6706.064834741462,
            "responseTime": 1873,
            "catchQuestion": "What was the proportion of red to blue marbles from your opponent's perspective?",
            "catchKey": -1,
            "catchResponse": -1,
            "catchResponseTime": -1,
            "pseudoRound": false,
            "trialTime": 82053
        },
        {
            "exptPart": "trial",
            "trialNumber": 67,
            "roleCurrent": "bullshitter",
            "marblesSampled": 10,
            "asymm": true,
            "probBullshitterRed": 0.8,
            "probBullshitDetectorRed": 0.2,
            "innerRed": 4,
            "outerRed": 116,
            "innerBlue": 16,
            "outerBlue": 14,
            "drawnRed": 9,
            "reportedDrawn": 1,
            "compLie": -1,
            "compUnifLie": false,
            "compDetect": 0.19801011199999963,
            "callBS": false,
            "playerTrialScore": 1,
            "oppTrialScore": 9,
            "playerTotalScore": 223,
            "oppTotalScore": 262,
            "waitTime": 2789.772786897172,
            "responseTime": 4294,
            "catchQuestion": "What was the proportion of red to blue marbles from your opponent's perspective?",
            "catchKey": -1,
            "catchResponse": -1,
            "catchResponseTime": -1,
            "pseudoRound": false,
            "trialTime": 12862
        },
        {
            "exptPart": "trial",
            "trialNumber": 68,
            "roleCurrent": "bullshitDetector",
            "marblesSampled": 10,
            "asymm": true,
            "probBullshitterRed": 0.2,
            "probBullshitDetectorRed": 0.5,
            "innerRed": 10,
            "outerRed": 20,
            "innerBlue": 10,
            "outerBlue": 110,
            "drawnRed": 1,
            "reportedDrawn": 7,
            "compLie": -1,
            "compUnifLie": false,
            "compDetect": 0.19801011199999963,
            "callBS": false,
            "playerTrialScore": 3,
            "oppTrialScore": 7,
            "playerTotalScore": 226,
            "oppTotalScore": 269,
            "waitTime": 5341.254224965582,
            "responseTime": 4197,
            "catchQuestion": "What was the proportion of red to blue marbles from your opponent's perspective?",
            "catchKey": -1,
            "catchResponse": -1,
            "catchResponseTime": -1,
            "pseudoRound": true,
            "trialTime": 11149
        },
        {
            "exptPart": "trial",
            "trialNumber": 69,
            "roleCurrent": "bullshitter",
            "marblesSampled": 10,
            "asymm": true,
            "probBullshitterRed": 0.8,
            "probBullshitDetectorRed": 0.2,
            "innerRed": 4,
            "outerRed": 116,
            "innerBlue": 16,
            "outerBlue": 14,
            "drawnRed": 6,
            "reportedDrawn": 4,
            "compLie": -1,
            "compUnifLie": false,
            "compDetect": 0.7894069760000003,
            "callBS": true,
            "playerTrialScore": -5,
            "oppTrialScore": 5,
            "playerTotalScore": 221,
            "oppTotalScore": 274,
            "waitTime": 2978.3063299503838,
            "responseTime": 7057,
            "catchQuestion": "What was the proportion of red to blue marbles from your opponent's perspective?",
            "catchKey": -1,
            "catchResponse": -1,
            "catchResponseTime": -1,
            "pseudoRound": true,
            "trialTime": 15169
        },
        {
            "exptPart": "trial",
            "trialNumber": 70,
            "roleCurrent": "bullshitDetector",
            "marblesSampled": 10,
            "asymm": true,
            "probBullshitterRed": 0.2,
            "probBullshitDetectorRed": 0.8,
            "innerRed": 16,
            "outerRed": 14,
            "innerBlue": 4,
            "outerBlue": 116,
            "drawnRed": 1,
            "reportedDrawn": 6,
            "compLie": -1,
            "compUnifLie": false,
            "compDetect": 0.7894069760000003,
            "callBS": false,
            "playerTrialScore": 4,
            "oppTrialScore": 6,
            "playerTotalScore": 225,
            "oppTotalScore": 280,
            "waitTime": 6021.545306037455,
            "responseTime": 1863,
            "catchQuestion": "What was the proportion of red to blue marbles from your opponent's perspective?",
            "catchKey": -1,
            "catchResponse": -1,
            "catchResponseTime": -1,
            "pseudoRound": true,
            "trialTime": 25628
        },
        {
            "exptPart": "trial",
            "trialNumber": 71,
            "roleCurrent": "bullshitter",
            "marblesSampled": 10,
            "asymm": false,
            "probBullshitterRed": 0.8,
            "probBullshitDetectorRed": 0.8,
            "innerRed": 16,
            "outerRed": 104,
            "innerBlue": 4,
            "outerBlue": 26,
            "drawnRed": 9,
            "reportedDrawn": 9,
            "compLie": -1,
            "compUnifLie": false,
            "compDetect": 0.7684354560000002,
            "callBS": true,
            "playerTrialScore": 9,
            "oppTrialScore": -4,
            "playerTotalScore": 234,
            "oppTotalScore": 276,
            "waitTime": 3075.8157042609687,
            "responseTime": 2997,
            "catchQuestion": "What was the proportion of red to blue marbles from your opponent's perspective?",
            "catchKey": -1,
            "catchResponse": -1,
            "catchResponseTime": -1,
            "pseudoRound": false,
            "trialTime": 14256
        },
        {
            "exptPart": "trial",
            "trialNumber": 72,
            "roleCurrent": "bullshitDetector",
            "marblesSampled": 10,
            "asymm": true,
            "probBullshitterRed": 0.2,
            "probBullshitDetectorRed": 0.8,
            "innerRed": 16,
            "outerRed": 14,
            "innerBlue": 4,
            "outerBlue": 116,
            "drawnRed": 2,
            "reportedDrawn": 7,
            "compLie": 7,
            "compUnifLie": false,
            "compDetect": -1,
            "callBS": false,
            "playerTrialScore": 3,
            "oppTrialScore": 7,
            "playerTotalScore": 237,
            "oppTotalScore": 283,
            "waitTime": 5198.253316048251,
            "responseTime": 3735,
            "catchQuestion": "How many red marbles did your opponent report drawing?",
            "catchKey": 7,
            "catchResponse": 7,
            "catchResponseTime": 4044,
            "pseudoRound": false,
            "trialTime": 25357
        },
        {
            "exptPart": "trial",
            "trialNumber": 73,
            "roleCurrent": "bullshitter",
            "marblesSampled": 10,
            "asymm": true,
            "probBullshitterRed": 0.8,
            "probBullshitDetectorRed": 0.5,
            "innerRed": 10,
            "outerRed": 110,
            "innerBlue": 10,
            "outerBlue": 20,
            "drawnRed": 9,
            "reportedDrawn": 9,
            "compLie": -1,
            "compUnifLie": false,
            "compDetect": 0.8759765625,
            "callBS": true,
            "playerTrialScore": 9,
            "oppTrialScore": -4,
            "playerTotalScore": 246,
            "oppTotalScore": 279,
            "waitTime": 2124.883444971045,
            "responseTime": 2480,
            "catchQuestion": "What was the proportion of red to blue marbles from your opponent's perspective?",
            "catchKey": 50,
            "catchResponse": "41",
            "catchResponseTime": 4034,
            "pseudoRound": false,
            "trialTime": 53101
        },
        {
            "exptPart": "trial",
            "trialNumber": 74,
            "roleCurrent": "bullshitDetector",
            "marblesSampled": 10,
            "asymm": true,
            "probBullshitterRed": 0.8,
            "probBullshitDetectorRed": 0.2,
            "innerRed": 4,
            "outerRed": 116,
            "innerBlue": 16,
            "outerBlue": 14,
            "drawnRed": 8,
            "reportedDrawn": 8,
            "compLie": 4,
            "compUnifLie": false,
            "compDetect": -1,
            "callBS": false,
            "playerTrialScore": 2,
            "oppTrialScore": 8,
            "playerTotalScore": 248,
            "oppTotalScore": 287,
            "waitTime": 7261.197649295369,
            "responseTime": 25415,
            "catchQuestion": "What was the proportion of red to blue marbles from your opponent's perspective?",
            "catchKey": -1,
            "catchResponse": -1,
            "catchResponseTime": -1,
            "pseudoRound": false,
            "trialTime": 34747
        },
        {
            "exptPart": "trial",
            "trialNumber": 75,
            "roleCurrent": "bullshitter",
            "marblesSampled": 10,
            "asymm": true,
            "probBullshitterRed": 0.8,
            "probBullshitDetectorRed": 0.5,
            "innerRed": 10,
            "outerRed": 110,
            "innerBlue": 10,
            "outerBlue": 20,
            "drawnRed": 10,
            "reportedDrawn": 10,
            "compLie": -1,
            "compUnifLie": false,
            "compDetect": 0.876953125,
            "callBS": true,
            "playerTrialScore": 10,
            "oppTrialScore": -5,
            "playerTotalScore": 258,
            "oppTotalScore": 282,
            "waitTime": 3184.078234568178,
            "responseTime": 3631,
            "catchQuestion": "What was the proportion of red to blue marbles from your opponent's perspective?",
            "catchKey": -1,
            "catchResponse": -1,
            "catchResponseTime": -1,
            "pseudoRound": false,
            "trialTime": 18436
        },
        {
            "exptPart": "trial",
            "trialNumber": 76,
            "roleCurrent": "bullshitDetector",
            "marblesSampled": 10,
            "asymm": true,
            "probBullshitterRed": 0.8,
            "probBullshitDetectorRed": 0.5,
            "innerRed": 10,
            "outerRed": 110,
            "innerBlue": 10,
            "outerBlue": 20,
            "drawnRed": 8,
            "reportedDrawn": 7,
            "compLie": -1,
            "compUnifLie": true,
            "compDetect": 0.876953125,
            "callBS": false,
            "playerTrialScore": 3,
            "oppTrialScore": 7,
            "playerTotalScore": 261,
            "oppTotalScore": 289,
            "waitTime": 5449.799227056868,
            "responseTime": 2445,
            "catchQuestion": "How many red marbles did your opponent report drawing?",
            "catchKey": 7,
            "catchResponse": 7,
            "catchResponseTime": 3595,
            "pseudoRound": false,
            "trialTime": 13176
        },
        {
            "exptPart": "trial",
            "trialNumber": 77,
            "roleCurrent": "bullshitter",
            "marblesSampled": 10,
            "asymm": true,
            "probBullshitterRed": 0.2,
            "probBullshitDetectorRed": 0.8,
            "innerRed": 16,
            "outerRed": 14,
            "innerBlue": 4,
            "outerBlue": 116,
            "drawnRed": 3,
            "reportedDrawn": 3,
            "compLie": -1,
            "compUnifLie": false,
            "compDetect": -0.12332600319999996,
            "callBS": false,
            "playerTrialScore": 3,
            "oppTrialScore": 7,
            "playerTotalScore": 264,
            "oppTotalScore": 296,
            "waitTime": 2856.0167019103096,
            "responseTime": 13076,
            "catchQuestion": "How many red marbles did your opponent report drawing?",
            "catchKey": -1,
            "catchResponse": -1,
            "catchResponseTime": -1,
            "pseudoRound": false,
            "trialTime": 35128
        },
        {
            "exptPart": "trial",
            "trialNumber": 78,
            "roleCurrent": "bullshitDetector",
            "marblesSampled": 10,
            "asymm": true,
            "probBullshitterRed": 0.5,
            "probBullshitDetectorRed": 0.2,
            "innerRed": 4,
            "outerRed": 71,
            "innerBlue": 16,
            "outerBlue": 59,
            "drawnRed": 3,
            "reportedDrawn": 4,
            "compLie": -1,
            "compUnifLie": true,
            "compDetect": -0.12332600319999996,
            "callBS": false,
            "playerTrialScore": 6,
            "oppTrialScore": 4,
            "playerTotalScore": 270,
            "oppTotalScore": 300,
            "waitTime": 5825.480932780406,
            "responseTime": 20793,
            "catchQuestion": "How many red marbles did your opponent report drawing?",
            "catchKey": -1,
            "catchResponse": -1,
            "catchResponseTime": -1,
            "pseudoRound": false,
            "trialTime": 29242
        },
        {
            "exptPart": "trial",
            "trialNumber": 79,
            "roleCurrent": "bullshitter",
            "marblesSampled": 10,
            "asymm": false,
            "probBullshitterRed": 0.8,
            "probBullshitDetectorRed": 0.8,
            "innerRed": 16,
            "outerRed": 104,
            "innerBlue": 4,
            "outerBlue": 26,
            "drawnRed": 8,
            "reportedDrawn": 8,
            "compLie": -1,
            "compUnifLie": false,
            "compDetect": 0.5,
            "callBS": false,
            "playerTrialScore": 8,
            "oppTrialScore": 2,
            "playerTotalScore": 278,
            "oppTotalScore": 302,
            "waitTime": 2921.559060506248,
            "responseTime": 4614,
            "catchQuestion": "How many red marbles did your opponent report drawing?",
            "catchKey": -1,
            "catchResponse": -1,
            "catchResponseTime": -1,
            "pseudoRound": false,
            "trialTime": 15866
        },
        {
            "exptPart": "trial",
            "trialNumber": 80,
            "roleCurrent": "bullshitDetector",
            "marblesSampled": 10,
            "asymm": true,
            "probBullshitterRed": 0.8,
            "probBullshitDetectorRed": 0.5,
            "innerRed": 10,
            "outerRed": 110,
            "innerBlue": 10,
            "outerBlue": 20,
            "drawnRed": 8,
            "reportedDrawn": 8,
            "compLie": 4,
            "compUnifLie": false,
            "compDetect": -1,
            "callBS": false,
            "playerTrialScore": 2,
            "oppTrialScore": 8,
            "playerTotalScore": 280,
            "oppTotalScore": 310,
            "waitTime": 7286.91113523916,
            "responseTime": 4095,
            "catchQuestion": "How many red marbles did your opponent report drawing?",
            "catchKey": -1,
            "catchResponse": -1,
            "catchResponseTime": -1,
            "pseudoRound": false,
            "trialTime": 14428
        },
        {
            "exptPart": "trial",
            "trialNumber": 81,
            "roleCurrent": "bullshitter",
            "marblesSampled": 10,
            "asymm": true,
            "probBullshitterRed": 0.5,
            "probBullshitDetectorRed": 0.8,
            "innerRed": 16,
            "outerRed": 59,
            "innerBlue": 4,
            "outerBlue": 71,
            "drawnRed": 5,
            "reportedDrawn": 5,
            "compLie": -1,
            "compUnifLie": false,
            "compDetect": -0.091396864,
            "callBS": false,
            "playerTrialScore": 5,
            "oppTrialScore": 5,
            "playerTotalScore": 285,
            "oppTotalScore": 315,
            "waitTime": 2262.6917198,
            "responseTime": 3284,
            "catchQuestion": "How many red marbles did your opponent report drawing?",
            "catchKey": -1,
            "catchResponse": -1,
            "catchResponseTime": -1,
            "pseudoRound": true,
            "trialTime": 12075
        },
        {
            "exptPart": "trial",
            "trialNumber": 82,
            "roleCurrent": "bullshitDetector",
            "marblesSampled": 10,
            "asymm": true,
            "probBullshitterRed": 0.2,
            "probBullshitDetectorRed": 0.5,
            "innerRed": 10,
            "outerRed": 20,
            "innerBlue": 10,
            "outerBlue": 110,
            "drawnRed": 2,
            "reportedDrawn": 9,
            "compLie": -1,
            "compUnifLie": false,
            "compDetect": -0.091396864,
            "callBS": false,
            "playerTrialScore": 1,
            "oppTrialScore": 9,
            "playerTotalScore": 286,
            "oppTotalScore": 324,
            "waitTime": 6240.388172708437,
            "responseTime": 6246,
            "catchQuestion": "How many red marbles did your opponent report drawing?",
            "catchKey": -1,
            "catchResponse": -1,
            "catchResponseTime": -1,
            "pseudoRound": true,
            "trialTime": 14549
        },
        {
            "exptPart": "trial",
            "trialNumber": 83,
            "roleCurrent": "bullshitter",
            "marblesSampled": 10,
            "asymm": false,
            "probBullshitterRed": 0.8,
            "probBullshitDetectorRed": 0.8,
            "innerRed": 16,
            "outerRed": 104,
            "innerBlue": 4,
            "outerBlue": 26,
            "drawnRed": 7,
            "reportedDrawn": 7,
            "compLie": -1,
            "compUnifLie": false,
            "compDetect": 0.19801011199999996,
            "callBS": false,
            "playerTrialScore": 7,
            "oppTrialScore": 3,
            "playerTotalScore": 293,
            "oppTotalScore": 327,
            "waitTime": 2541.5361361073265,
            "responseTime": 3149,
            "catchQuestion": "How many red marbles did your opponent report drawing?",
            "catchKey": -1,
            "catchResponse": -1,
            "catchResponseTime": -1,
            "pseudoRound": false,
            "trialTime": 11686
        },
        {
            "exptPart": "trial",
            "trialNumber": 84,
            "roleCurrent": "bullshitDetector",
            "marblesSampled": 10,
            "asymm": true,
            "probBullshitterRed": 0.8,
            "probBullshitDetectorRed": 0.2,
            "innerRed": 4,
            "outerRed": 116,
            "innerBlue": 16,
            "outerBlue": 14,
            "drawnRed": 8,
            "reportedDrawn": 8,
            "compLie": 1,
            "compUnifLie": false,
            "compDetect": -1,
            "callBS": false,
            "playerTrialScore": 2,
            "oppTrialScore": 8,
            "playerTotalScore": 295,
            "oppTotalScore": 335,
            "waitTime": 5399.4507805198555,
            "responseTime": 2605,
            "catchQuestion": "How many red marbles did your opponent report drawing?",
            "catchKey": -1,
            "catchResponse": -1,
            "catchResponseTime": -1,
            "pseudoRound": false,
            "trialTime": 10554
        },
        {
            "exptPart": "trial",
            "trialNumber": 85,
            "roleCurrent": "bullshitter",
            "marblesSampled": 10,
            "asymm": true,
            "probBullshitterRed": 0.5,
            "probBullshitDetectorRed": 0.8,
            "innerRed": 16,
            "outerRed": 59,
            "innerBlue": 4,
            "outerBlue": 71,
            "drawnRed": 6,
            "reportedDrawn": 6,
            "compLie": -1,
            "compUnifLie": false,
            "compDetect": -0.0033164800000000383,
            "callBS": false,
            "playerTrialScore": 6,
            "oppTrialScore": 4,
            "playerTotalScore": 301,
            "oppTotalScore": 339,
            "waitTime": 2840.4111390269186,
            "responseTime": 5452,
            "catchQuestion": "How many red marbles did your opponent report drawing?",
            "catchKey": -1,
            "catchResponse": -1,
            "catchResponseTime": -1,
            "pseudoRound": false,
            "trialTime": 14835
        },
        {
            "exptPart": "trial",
            "trialNumber": 86,
            "roleCurrent": "bullshitDetector",
            "marblesSampled": 10,
            "asymm": false,
            "probBullshitterRed": 0.2,
            "probBullshitDetectorRed": 0.2,
            "innerRed": 4,
            "outerRed": 26,
            "innerBlue": 16,
            "outerBlue": 104,
            "drawnRed": 1,
            "reportedDrawn": 8,
            "compLie": -1,
            "compUnifLie": false,
            "compDetect": -0.0033164800000000383,
            "callBS": true,
            "playerTrialScore": 5,
            "oppTrialScore": -5,
            "playerTotalScore": 306,
            "oppTotalScore": 334,
            "waitTime": 6422.601046300419,
            "responseTime": 3506,
            "catchQuestion": "How many red marbles did your opponent report drawing?",
            "catchKey": 8,
            "catchResponse": 8,
            "catchResponseTime": 4140,
            "pseudoRound": true,
            "trialTime": 16049
        },
        {
            "exptPart": "trial",
            "trialNumber": 87,
            "roleCurrent": "bullshitter",
            "marblesSampled": 10,
            "asymm": false,
            "probBullshitterRed": 0.2,
            "probBullshitDetectorRed": 0.2,
            "innerRed": 4,
            "outerRed": 26,
            "innerBlue": 16,
            "outerBlue": 104,
            "drawnRed": 1,
            "reportedDrawn": 9,
            "compLie": -1,
            "compUnifLie": false,
            "compDetect": 0.8222003712000002,
            "callBS": true,
            "playerTrialScore": -5,
            "oppTrialScore": 5,
            "playerTotalScore": 301,
            "oppTotalScore": 339,
            "waitTime": 2720.5238315741917,
            "responseTime": 3457,
            "catchQuestion": "How many red marbles did your opponent report drawing?",
            "catchKey": -1,
            "catchResponse": -1,
            "catchResponseTime": -1,
            "pseudoRound": false,
            "trialTime": 10961
        },
        {
            "exptPart": "trial",
            "trialNumber": 88,
            "roleCurrent": "bullshitDetector",
            "marblesSampled": 10,
            "asymm": true,
            "probBullshitterRed": 0.5,
            "probBullshitDetectorRed": 0.2,
            "innerRed": 4,
            "outerRed": 71,
            "innerBlue": 16,
            "outerBlue": 59,
            "drawnRed": 5,
            "reportedDrawn": 5,
            "compLie": 1,
            "compUnifLie": false,
            "compDetect": -1,
            "callBS": true,
            "playerTrialScore": 0,
            "oppTrialScore": 5,
            "playerTotalScore": 301,
            "oppTotalScore": 344,
            "waitTime": 6173.653180977373,
            "responseTime": 6937,
            "catchQuestion": "How many red marbles did your opponent report drawing?",
            "catchKey": -1,
            "catchResponse": -1,
            "catchResponseTime": -1,
            "pseudoRound": false,
            "trialTime": 17465
        },
        {
            "exptPart": "trial",
            "trialNumber": 89,
            "roleCurrent": "bullshitter",
            "marblesSampled": 10,
            "asymm": true,
            "probBullshitterRed": 0.5,
            "probBullshitDetectorRed": 0.2,
            "innerRed": 4,
            "outerRed": 71,
            "innerBlue": 16,
            "outerBlue": 59,
            "drawnRed": 5,
            "reportedDrawn": 5,
            "compLie": -1,
            "compUnifLie": false,
            "compDetect": 0.8158310912000003,
            "callBS": true,
            "playerTrialScore": 5,
            "oppTrialScore": 0,
            "playerTotalScore": 306,
            "oppTotalScore": 344,
            "waitTime": 2682.55510597256,
            "responseTime": 4206,
            "catchQuestion": "How many red marbles did your opponent report drawing?",
            "catchKey": -1,
            "catchResponse": -1,
            "catchResponseTime": -1,
            "pseudoRound": false,
            "trialTime": 13924
        },
        {
            "exptPart": "trial",
            "trialNumber": 90,
            "roleCurrent": "bullshitDetector",
