{
    "client": {
        "type": "sona",
        "experiment_id": 1505,
        "credit_token": "b20092f9d3b34a378ee654bcc50710ea",
        "survey_code": "30375",
        "sid": "sona-30375",
        "window": {
            "width": 885,
            "height": 712
        },
        "screen": {
            "width": 1440,
            "height": 900
        },
        "userAgent": "Mozilla\/5.0 (Macintosh; Intel Mac OS X 10_13_6) AppleWebKit\/537.36 (KHTML, like Gecko) Chrome\/73.0.3683.86 Safari\/537.36",
        "score": 0,
        "bonus": 0
    },
    "expt": {
        "saveURL": "submit.simple.php",
        "trials": 100,
        "practiceTrials": 4,
        "marblesSampled": 10,
        "roles": [
            "bullshitter",
            "bullshitDetector"
        ],
        "roleFirst": "bullshitDetector",
        "allTrialProbs": [
            0.2,
            0.5,
            0.8
        ],
        "trialProbs": 0.5,
        "catchTrials": [
            6,
            12,
            28,
            33,
            46,
            59,
            69,
            71,
            83,
            95
        ],
        "pseudo": {
            "0": 4,
            "1": 10,
            "6": 6,
            "7": 6,
            "10": 5,
            "16": 0,
            "30": 10,
            "36": 1,
            "39": 1,
            "42": 7,
            "44": 3,
            "45": 2,
            "49": 0,
            "59": 7,
            "72": 2,
            "73": 5,
            "78": 8,
            "81": 8,
            "87": 4,
            "89": 9,
            "90": 9,
            "97": 3
        },
        "stat": {
            "playerTotalScore": 349,
            "oppTotalScore": 311,
            "truth": 17,
            "truth_noBS": 8,
            "truth_BS": 9,
            "lie": 33,
            "lie_noBS": 28,
            "lie_BS": 5,
            "noBS": 19,
            "noBS_truth": 10,
            "noBS_lie": 9,
            "BS": 31,
            "BS_truth": 13,
            "BS_lie": 18
        },
        "sona": {
            "experiment_id": 1505,
            "credit_token": "b20092f9d3b34a378ee654bcc50710ea"
        }
    },
    "trials": [
        {
            "exptPart": "practice",
            "trialNumber": 1,
            "roleCurrent": "bullshitter",
            "marblesSampled": 10,
            "probabilityRed": 0.5,
            "drawnRed": 4,
            "reportedDrawn": 5,
            "compLie": -1,
            "compUnifLie": false,
            "compDetect": 0.25390625,
            "callBS": false,
            "playerTrialScore": 5,
            "oppTrialScore": 5,
            "playerTotalScore": 5,
            "oppTotalScore": 5,
            "waitTime": 2586.6639073119,
            "responseTime": 92001,
            "catchQuestion": "How many red marbles did you actually draw?",
            "catchKey": 4,
            "catchResponse": 4,
            "catchResponseTime": 2344,
            "pseudoRound": false,
            "trialTime": 125246
        },
        {
            "exptPart": "practice",
            "trialNumber": 2,
            "roleCurrent": "bullshitDetector",
            "marblesSampled": 10,
            "probabilityRed": 0.5,
            "drawnRed": 8,
            "reportedDrawn": 6,
            "compLie": 6,
            "compUnifLie": false,
            "compDetect": -1,
            "callBS": true,
            "playerTrialScore": 5,
            "oppTrialScore": -5,
            "playerTotalScore": 10,
            "oppTotalScore": 0,
            "waitTime": 5643.5685885792,
            "responseTime": 21607,
            "catchQuestion": "How many red marbles did you actually draw?",
            "catchKey": -1,
            "catchResponse": -1,
            "catchResponseTime": -1,
            "pseudoRound": false,
            "trialTime": 67542
        },
        {
            "exptPart": "practice",
            "trialNumber": 3,
            "roleCurrent": "bullshitter",
            "marblesSampled": 10,
            "probabilityRed": 0.5,
            "drawnRed": 7,
            "reportedDrawn": 7,
            "compLie": -1,
            "compUnifLie": false,
            "compDetect": -0.068359375,
            "callBS": false,
            "playerTrialScore": 3,
            "oppTrialScore": 7,
            "playerTotalScore": 13,
            "oppTotalScore": 7,
            "waitTime": 2828.5455478761,
            "responseTime": 7465,
            "catchQuestion": "How many red marbles did you actually draw?",
            "catchKey": 7,
            "catchResponse": 7,
            "catchResponseTime": 7668,
            "pseudoRound": false,
            "trialTime": 75997
        },
        {
            "exptPart": "practice",
            "trialNumber": 4,
            "roleCurrent": "bullshitDetector",
            "marblesSampled": 10,
            "probabilityRed": 0.5,
            "drawnRed": 7,
            "reportedDrawn": 3,
            "compLie": 3,
            "compUnifLie": false,
            "compDetect": -1,
            "callBS": false,
            "playerTrialScore": 3,
            "oppTrialScore": 7,
            "playerTotalScore": 16,
            "oppTotalScore": 14,
            "waitTime": 6515.6760930785,
            "responseTime": 5950,
            "catchQuestion": "How many red marbles did you actually draw?",
            "catchKey": -1,
            "catchResponse": -1,
            "catchResponseTime": -1,
            "pseudoRound": false,
            "trialTime": 20498
        },
        {
            "exptPart": "trial",
            "trialNumber": 1,
            "roleCurrent": "bullshitDetector",
            "marblesSampled": 10,
            "probabilityRed": 0.5,
            "drawnRed": 6,
            "reportedDrawn": 4,
            "compLie": 3,
            "compUnifLie": false,
            "compDetect": -1,
            "callBS": true,
            "playerTrialScore": 5,
            "oppTrialScore": -5,
            "playerTotalScore": 5,
            "oppTotalScore": -5,
            "waitTime": 5668.0068640934,
            "responseTime": 53476,
            "catchQuestion": "How many red marbles did you actually draw?",
            "catchKey": -1,
            "catchResponse": -1,
            "catchResponseTime": -1,
            "pseudoRound": true,
            "trialTime": 60520
        },
        {
            "exptPart": "trial",
            "trialNumber": 2,
            "roleCurrent": "bullshitter",
            "marblesSampled": 10,
            "probabilityRed": 0.5,
            "drawnRed": 10,
            "reportedDrawn": 10,
            "compLie": -1,
            "compUnifLie": false,
            "compDetect": -0.123046875,
            "callBS": false,
            "playerTrialScore": 0,
            "oppTrialScore": 10,
            "playerTotalScore": 5,
            "oppTotalScore": 5,
            "waitTime": 3072.4715972779,
            "responseTime": 3675,
            "catchQuestion": "How many red marbles did you actually draw?",
            "catchKey": -1,
            "catchResponse": -1,
            "catchResponseTime": -1,
            "pseudoRound": true,
            "trialTime": 11718
        },
        {
            "exptPart": "trial",
            "trialNumber": 3,
            "roleCurrent": "bullshitDetector",
            "marblesSampled": 10,
            "probabilityRed": 0.5,
            "drawnRed": 7,
            "reportedDrawn": 5,
            "compLie": 5,
            "compUnifLie": false,
            "compDetect": -1,
            "callBS": false,
            "playerTrialScore": 5,
            "oppTrialScore": 5,
            "playerTotalScore": 10,
            "oppTotalScore": 10,
            "waitTime": 5695.817493824,
            "responseTime": 8776,
            "catchQuestion": "How many red marbles did you actually draw?",
            "catchKey": -1,
            "catchResponse": -1,
            "catchResponseTime": -1,
            "pseudoRound": false,
            "trialTime": 17034
        },
        {
            "exptPart": "trial",
            "trialNumber": 4,
            "roleCurrent": "bullshitter",
            "marblesSampled": 10,
            "probabilityRed": 0.5,
            "drawnRed": 5,
            "reportedDrawn": 5,
            "compLie": -1,
            "compUnifLie": false,
            "compDetect": 0.25390625,
            "callBS": false,
            "playerTrialScore": 5,
            "oppTrialScore": 5,
            "playerTotalScore": 15,
            "oppTotalScore": 15,
            "waitTime": 2416.8327131839,
            "responseTime": 6426,
            "catchQuestion": "How many red marbles did you actually draw?",
            "catchKey": -1,
            "catchResponse": -1,
            "catchResponseTime": -1,
            "pseudoRound": false,
            "trialTime": 13924
        },
        {
            "exptPart": "trial",
            "trialNumber": 5,
            "roleCurrent": "bullshitDetector",
            "marblesSampled": 10,
            "probabilityRed": 0.5,
            "drawnRed": 5,
            "reportedDrawn": 3,
            "compLie": 3,
            "compUnifLie": false,
            "compDetect": -1,
            "callBS": true,
            "playerTrialScore": 5,
            "oppTrialScore": -5,
            "playerTotalScore": 20,
            "oppTotalScore": 10,
            "waitTime": 5537.5604996529,
            "responseTime": 4930,
            "catchQuestion": "How many red marbles did you actually draw?",
            "catchKey": -1,
            "catchResponse": -1,
            "catchResponseTime": -1,
            "pseudoRound": false,
            "trialTime": 16729
        },
        {
            "exptPart": "trial",
            "trialNumber": 6,
            "roleCurrent": "bullshitter",
            "marblesSampled": 10,
            "probabilityRed": 0.5,
            "drawnRed": 4,
            "reportedDrawn": 3,
            "compLie": -1,
            "compUnifLie": false,
            "compDetect": 0.705078125,
            "callBS": true,
            "playerTrialScore": -5,
            "oppTrialScore": 5,
            "playerTotalScore": 15,
            "oppTotalScore": 15,
            "waitTime": 3203.5848923057,
            "responseTime": 4782,
            "catchQuestion": "How many red marbles did you actually draw?",
            "catchKey": -1,
            "catchResponse": -1,
            "catchResponseTime": -1,
            "pseudoRound": false,
            "trialTime": 12984
        },
        {
            "exptPart": "trial",
            "trialNumber": 7,
            "roleCurrent": "bullshitDetector",
            "marblesSampled": 10,
            "probabilityRed": 0.5,
            "drawnRed": 6,
            "reportedDrawn": 6,
            "compLie": -1,
            "compUnifLie": false,
            "compDetect": 0.705078125,
            "callBS": false,
            "playerTrialScore": 6,
            "oppTrialScore": 4,
            "playerTotalScore": 21,
            "oppTotalScore": 19,
            "waitTime": 5881.8510170267,
            "responseTime": 18958,
            "catchQuestion": "How many red marbles did your opponent report drawing?",
            "catchKey": 6,
            "catchResponse": 6,
            "catchResponseTime": 3698,
            "pseudoRound": true,
            "trialTime": 30150
        },
        {
            "exptPart": "trial",
            "trialNumber": 8,
            "roleCurrent": "bullshitter",
            "marblesSampled": 10,
            "probabilityRed": 0.5,
            "drawnRed": 6,
            "reportedDrawn": 7,
            "compLie": -1,
            "compUnifLie": false,
            "compDetect": -0.068359375,
            "callBS": false,
            "playerTrialScore": 3,
            "oppTrialScore": 7,
            "playerTotalScore": 24,
            "oppTotalScore": 26,
            "waitTime": 3183.8867338126,
            "responseTime": 8450,
            "catchQuestion": "How many red marbles did your opponent report drawing?",
            "catchKey": -1,
            "catchResponse": -1,
            "catchResponseTime": -1,
            "pseudoRound": true,
            "trialTime": 19035
        },
        {
            "exptPart": "trial",
            "trialNumber": 9,
            "roleCurrent": "bullshitDetector",
            "marblesSampled": 10,
            "probabilityRed": 0.5,
            "drawnRed": 7,
            "reportedDrawn": 2,
            "compLie": 2,
            "compUnifLie": false,
            "compDetect": -1,
            "callBS": true,
            "playerTrialScore": 5,
            "oppTrialScore": -5,
            "playerTotalScore": 29,
            "oppTotalScore": 21,
            "waitTime": 7441.7076728174,
            "responseTime": 1732,
            "catchQuestion": "How many red marbles did your opponent report drawing?",
            "catchKey": -1,
            "catchResponse": -1,
            "catchResponseTime": -1,
            "pseudoRound": false,
            "trialTime": 11247
        },
        {
            "exptPart": "trial",
            "trialNumber": 10,
            "roleCurrent": "bullshitter",
            "marblesSampled": 10,
            "probabilityRed": 0.5,
            "drawnRed": 4,
            "reportedDrawn": 4,
            "compLie": -1,
            "compUnifLie": false,
            "compDetect": 0.5,
            "callBS": true,
            "playerTrialScore": 6,
            "oppTrialScore": -1,
            "playerTotalScore": 35,
            "oppTotalScore": 20,
            "waitTime": 2324.759712974,
            "responseTime": 4767,
            "catchQuestion": "How many red marbles did your opponent report drawing?",
            "catchKey": -1,
            "catchResponse": -1,
            "catchResponseTime": -1,
            "pseudoRound": false,
            "trialTime": 10924
        },
        {
            "exptPart": "trial",
            "trialNumber": 11,
            "roleCurrent": "bullshitDetector",
            "marblesSampled": 10,
            "probabilityRed": 0.5,
            "drawnRed": 6,
            "reportedDrawn": 5,
            "compLie": -1,
            "compUnifLie": false,
            "compDetect": 0.5,
            "callBS": false,
            "playerTrialScore": 5,
            "oppTrialScore": 5,
            "playerTotalScore": 40,
            "oppTotalScore": 25,
            "waitTime": 6355.8922483685,
            "responseTime": 3066,
            "catchQuestion": "How many red marbles did your opponent report drawing?",
            "catchKey": -1,
            "catchResponse": -1,
            "catchResponseTime": -1,
            "pseudoRound": true,
            "trialTime": 10530
        },
        {
            "exptPart": "trial",
            "trialNumber": 12,
            "roleCurrent": "bullshitter",
            "marblesSampled": 10,
            "probabilityRed": 0.5,
            "drawnRed": 5,
            "reportedDrawn": 5,
            "compLie": -1,
            "compUnifLie": false,
            "compDetect": 0.25390625,
            "callBS": true,
            "playerTrialScore": 5,
            "oppTrialScore": 0,
            "playerTotalScore": 45,
            "oppTotalScore": 25,
            "waitTime": 2247.7235140045,
            "responseTime": 5036,
            "catchQuestion": "How many red marbles did your opponent report drawing?",
            "catchKey": -1,
            "catchResponse": -1,
            "catchResponseTime": -1,
            "pseudoRound": false,
            "trialTime": 11183
        },
        {
            "exptPart": "trial",
            "trialNumber": 13,
            "roleCurrent": "bullshitDetector",
            "marblesSampled": 10,
            "probabilityRed": 0.5,
            "drawnRed": 4,
            "reportedDrawn": 4,
            "compLie": 7,
            "compUnifLie": false,
            "compDetect": -1,
            "callBS": false,
            "playerTrialScore": 4,
            "oppTrialScore": 6,
            "playerTotalScore": 49,
            "oppTotalScore": 31,
            "waitTime": 5552.8931215871,
            "responseTime": 5182,
            "catchQuestion": "How many red marbles did your opponent report drawing?",
            "catchKey": 4,
            "catchResponse": 4,
            "catchResponseTime": 3262,
            "pseudoRound": false,
            "trialTime": 15630
        },
        {
            "exptPart": "trial",
            "trialNumber": 14,
            "roleCurrent": "bullshitter",
            "marblesSampled": 10,
            "probabilityRed": 0.5,
            "drawnRed": 6,
            "reportedDrawn": 5,
            "compLie": -1,
            "compUnifLie": false,
            "compDetect": 0.25390625,
            "callBS": false,
            "playerTrialScore": 5,
            "oppTrialScore": 5,
            "playerTotalScore": 54,
            "oppTotalScore": 36,
            "waitTime": 2711.5223926452,
            "responseTime": 5941,
            "catchQuestion": "How many red marbles did your opponent report drawing?",
            "catchKey": -1,
            "catchResponse": -1,
            "catchResponseTime": -1,
            "pseudoRound": false,
            "trialTime": 12622
        },
        {
            "exptPart": "trial",
            "trialNumber": 15,
            "roleCurrent": "bullshitDetector",
            "marblesSampled": 10,
            "probabilityRed": 0.5,
            "drawnRed": 5,
            "reportedDrawn": 0,
            "compLie": -1,
            "compUnifLie": true,
            "compDetect": 0.25390625,
            "callBS": true,
            "playerTrialScore": 5,
            "oppTrialScore": -5,
            "playerTotalScore": 59,
            "oppTotalScore": 31,
            "waitTime": 5279.7204035312,
            "responseTime": 27981,
            "catchQuestion": "How many red marbles did your opponent report drawing?",
            "catchKey": -1,
            "catchResponse": -1,
            "catchResponseTime": -1,
            "pseudoRound": false,
            "trialTime": 44752
        },
        {
            "exptPart": "trial",
            "trialNumber": 16,
            "roleCurrent": "bullshitter",
            "marblesSampled": 10,
            "probabilityRed": 0.5,
            "drawnRed": 6,
            "reportedDrawn": 7,
            "compLie": -1,
            "compUnifLie": false,
            "compDetect": -0.068359375,
            "callBS": false,
            "playerTrialScore": 3,
            "oppTrialScore": 7,
            "playerTotalScore": 62,
            "oppTotalScore": 38,
            "waitTime": 2833.6431492482,
            "responseTime": 6121,
            "catchQuestion": "How many red marbles did your opponent report drawing?",
            "catchKey": -1,
            "catchResponse": -1,
            "catchResponseTime": -1,
            "pseudoRound": false,
            "trialTime": 14082
        },
        {
            "exptPart": "trial",
            "trialNumber": 17,
            "roleCurrent": "bullshitDetector",
            "marblesSampled": 10,
            "probabilityRed": 0.5,
            "drawnRed": 5,
            "reportedDrawn": 0,
            "compLie": -1,
            "compUnifLie": false,
            "compDetect": -0.068359375,
            "callBS": true,
            "playerTrialScore": 5,
            "oppTrialScore": -5,
            "playerTotalScore": 67,
            "oppTotalScore": 33,
            "waitTime": 6364.9362098436,
            "responseTime": 3627,
            "catchQuestion": "How many red marbles did your opponent report drawing?",
            "catchKey": -1,
            "catchResponse": -1,
            "catchResponseTime": -1,
            "pseudoRound": true,
            "trialTime": 11901
        },
        {
            "exptPart": "trial",
            "trialNumber": 18,
            "roleCurrent": "bullshitter",
            "marblesSampled": 10,
            "probabilityRed": 0.5,
            "drawnRed": 5,
            "reportedDrawn": 7,
            "compLie": -1,
            "compUnifLie": false,
            "compDetect": -0.068359375,
            "callBS": false,
            "playerTrialScore": 3,
            "oppTrialScore": 7,
            "playerTotalScore": 70,
            "oppTotalScore": 40,
            "waitTime": 2623.8375209088,
            "responseTime": 4150,
            "catchQuestion": "How many red marbles did your opponent report drawing?",
            "catchKey": -1,
            "catchResponse": -1,
            "catchResponseTime": -1,
            "pseudoRound": false,
            "trialTime": 15069
        },
        {
            "exptPart": "trial",
            "trialNumber": 19,
            "roleCurrent": "bullshitDetector",
            "marblesSampled": 10,
            "probabilityRed": 0.5,
            "drawnRed": 3,
            "reportedDrawn": 3,
            "compLie": 7,
            "compUnifLie": false,
            "compDetect": -1,
            "callBS": true,
            "playerTrialScore": -2,
            "oppTrialScore": 7,
            "playerTotalScore": 68,
            "oppTotalScore": 47,
            "waitTime": 5140.7214158436,
            "responseTime": 15808,
            "catchQuestion": "How many red marbles did your opponent report drawing?",
            "catchKey": -1,
            "catchResponse": -1,
            "catchResponseTime": -1,
            "pseudoRound": false,
            "trialTime": 22688
        },
        {
            "exptPart": "trial",
            "trialNumber": 20,
            "roleCurrent": "bullshitter",
            "marblesSampled": 10,
            "probabilityRed": 0.5,
            "drawnRed": 7,
            "reportedDrawn": 6,
            "compLie": -1,
            "compUnifLie": false,
            "compDetect": 0.048828125,
            "callBS": false,
            "playerTrialScore": 4,
            "oppTrialScore": 6,
            "playerTotalScore": 72,
            "oppTotalScore": 53,
            "waitTime": 2187.2583466918,
            "responseTime": 40271,
            "catchQuestion": "How many red marbles did your opponent report drawing?",
            "catchKey": -1,
            "catchResponse": -1,
            "catchResponseTime": -1,
            "pseudoRound": false,
            "trialTime": 48258
        },
        {
            "exptPart": "trial",
            "trialNumber": 21,
            "roleCurrent": "bullshitDetector",
            "marblesSampled": 10,
            "probabilityRed": 0.5,
            "drawnRed": 5,
            "reportedDrawn": 2,
            "compLie": 2,
            "compUnifLie": false,
            "compDetect": -1,
            "callBS": false,
            "playerTrialScore": 2,
            "oppTrialScore": 8,
            "playerTotalScore": 74,
            "oppTotalScore": 61,
            "waitTime": 5909.1473384201,
            "responseTime": 36613,
            "catchQuestion": "How many red marbles did your opponent report drawing?",
            "catchKey": -1,
            "catchResponse": -1,
            "catchResponseTime": -1,
            "pseudoRound": false,
            "trialTime": 44197
        },
        {
            "exptPart": "trial",
            "trialNumber": 22,
            "roleCurrent": "bullshitter",
            "marblesSampled": 10,
            "probabilityRed": 0.5,
            "drawnRed": 4,
            "reportedDrawn": 4,
            "compLie": -1,
            "compUnifLie": false,
            "compDetect": 0.5,
            "callBS": false,
            "playerTrialScore": 6,
            "oppTrialScore": 4,
            "playerTotalScore": 80,
            "oppTotalScore": 65,
            "waitTime": 2324.9599501887,
            "responseTime": 15439,
            "catchQuestion": "How many red marbles did your opponent report drawing?",
            "catchKey": -1,
            "catchResponse": -1,
            "catchResponseTime": -1,
            "pseudoRound": false,
            "trialTime": 23949
        },
        {
            "exptPart": "trial",
            "trialNumber": 23,
            "roleCurrent": "bullshitDetector",
            "marblesSampled": 10,
            "probabilityRed": 0.5,
            "drawnRed": 3,
            "reportedDrawn": 3,
            "compLie": 4,
            "compUnifLie": false,
            "compDetect": -1,
            "callBS": false,
            "playerTrialScore": 3,
            "oppTrialScore": 7,
            "playerTotalScore": 83,
            "oppTotalScore": 72,
            "waitTime": 6368.6913251357,
            "responseTime": 2866,
            "catchQuestion": "How many red marbles did your opponent report drawing?",
            "catchKey": -1,
            "catchResponse": -1,
            "catchResponseTime": -1,
            "pseudoRound": false,
            "trialTime": 11735
        },
        {
            "exptPart": "trial",
            "trialNumber": 24,
            "roleCurrent": "bullshitter",
            "marblesSampled": 10,
            "probabilityRed": 0.5,
            "drawnRed": 6,
            "reportedDrawn": 7,
            "compLie": -1,
            "compUnifLie": false,
            "compDetect": -0.068359375,
            "callBS": false,
            "playerTrialScore": 3,
            "oppTrialScore": 7,
            "playerTotalScore": 86,
            "oppTotalScore": 79,
            "waitTime": 2322.4358143091,
            "responseTime": 6582,
            "catchQuestion": "How many red marbles did your opponent report drawing?",
            "catchKey": -1,
            "catchResponse": -1,
            "catchResponseTime": -1,
            "pseudoRound": false,
            "trialTime": 15081
        },
        {
            "exptPart": "trial",
            "trialNumber": 25,
            "roleCurrent": "bullshitDetector",
            "marblesSampled": 10,
            "probabilityRed": 0.5,
            "drawnRed": 5,
            "reportedDrawn": 5,
            "compLie": 7,
            "compUnifLie": false,
            "compDetect": -1,
            "callBS": true,
            "playerTrialScore": 0,
            "oppTrialScore": 5,
            "playerTotalScore": 86,
            "oppTotalScore": 84,
            "waitTime": 7099.9396917468,
            "responseTime": 10396,
            "catchQuestion": "How many red marbles did your opponent report drawing?",
            "catchKey": -1,
            "catchResponse": -1,
            "catchResponseTime": -1,
            "pseudoRound": false,
            "trialTime": 19724
        },
        {
            "exptPart": "trial",
            "trialNumber": 26,
            "roleCurrent": "bullshitter",
            "marblesSampled": 10,
            "probabilityRed": 0.5,
            "drawnRed": 5,
            "reportedDrawn": 5,
            "compLie": -1,
            "compUnifLie": false,
            "compDetect": 0.25390625,
            "callBS": true,
            "playerTrialScore": 5,
            "oppTrialScore": 0,
            "playerTotalScore": 91,
            "oppTotalScore": 84,
            "waitTime": 2754.9410264234,
            "responseTime": 19518,
            "catchQuestion": "How many red marbles did your opponent report drawing?",
            "catchKey": -1,
            "catchResponse": -1,
            "catchResponseTime": -1,
            "pseudoRound": false,
            "trialTime": 30427
        },
        {
            "exptPart": "trial",
            "trialNumber": 27,
            "roleCurrent": "bullshitDetector",
            "marblesSampled": 10,
            "probabilityRed": 0.5,
            "drawnRed": 1,
            "reportedDrawn": 1,
            "compLie": 5,
            "compUnifLie": false,
            "compDetect": -1,
            "callBS": false,
            "playerTrialScore": 1,
            "oppTrialScore": 9,
            "playerTotalScore": 92,
            "oppTotalScore": 93,
            "waitTime": 5891.4823437879,
            "responseTime": 6077,
            "catchQuestion": "How many red marbles did your opponent report drawing?",
            "catchKey": -1,
            "catchResponse": -1,
            "catchResponseTime": -1,
            "pseudoRound": false,
            "trialTime": 16687
        },
        {
            "exptPart": "trial",
            "trialNumber": 28,
            "roleCurrent": "bullshitter",
            "marblesSampled": 10,
            "probabilityRed": 0.5,
            "drawnRed": 5,
            "reportedDrawn": 6,
            "compLie": -1,
            "compUnifLie": false,
            "compDetect": 0.048828125,
            "callBS": false,
            "playerTrialScore": 4,
            "oppTrialScore": 6,
            "playerTotalScore": 96,
            "oppTotalScore": 99,
            "waitTime": 3155.4990703397,
            "responseTime": 8068,
            "catchQuestion": "How many red marbles did your opponent report drawing?",
            "catchKey": -1,
            "catchResponse": -1,
            "catchResponseTime": -1,
            "pseudoRound": false,
            "trialTime": 18003
        },
        {
            "exptPart": "trial",
            "trialNumber": 29,
            "roleCurrent": "bullshitDetector",
            "marblesSampled": 10,
            "probabilityRed": 0.5,
            "drawnRed": 5,
            "reportedDrawn": 5,
            "compLie": 8,
            "compUnifLie": false,
            "compDetect": -1,
            "callBS": false,
            "playerTrialScore": 5,
            "oppTrialScore": 5,
            "playerTotalScore": 101,
            "oppTotalScore": 104,
            "waitTime": 5132.6152677027,
            "responseTime": 10213,
            "catchQuestion": "How many red marbles did your opponent report drawing?",
            "catchKey": 5,
            "catchResponse": 5,
            "catchResponseTime": 4087,
            "pseudoRound": false,
            "trialTime": 21201
        },
        {
            "exptPart": "trial",
            "trialNumber": 30,
            "roleCurrent": "bullshitter",
            "marblesSampled": 10,
            "probabilityRed": 0.5,
            "drawnRed": 6,
            "reportedDrawn": 7,
            "compLie": -1,
            "compUnifLie": false,
            "compDetect": -0.068359375,
            "callBS": false,
            "playerTrialScore": 3,
            "oppTrialScore": 7,
            "playerTotalScore": 104,
            "oppTotalScore": 111,
            "waitTime": 2087.192580413,
            "responseTime": 4672,
            "catchQuestion": "How many red marbles did your opponent report drawing?",
            "catchKey": -1,
            "catchResponse": -1,
            "catchResponseTime": -1,
            "pseudoRound": false,
            "trialTime": 16194
        },
        {
            "exptPart": "trial",
            "trialNumber": 31,
            "roleCurrent": "bullshitDetector",
            "marblesSampled": 10,
            "probabilityRed": 0.5,
            "drawnRed": 7,
            "reportedDrawn": 10,
            "compLie": -1,
            "compUnifLie": false,
            "compDetect": -0.068359375,
            "callBS": true,
            "playerTrialScore": 5,
            "oppTrialScore": -5,
            "playerTotalScore": 109,
            "oppTotalScore": 106,
            "waitTime": 6798.211468798,
            "responseTime": 36891,
            "catchQuestion": "How many red marbles did your opponent report drawing?",
            "catchKey": -1,
            "catchResponse": -1,
            "catchResponseTime": -1,
            "pseudoRound": true,
            "trialTime": 45357
        },
        {
            "exptPart": "trial",
            "trialNumber": 32,
            "roleCurrent": "bullshitter",
            "marblesSampled": 10,
            "probabilityRed": 0.5,
            "drawnRed": 5,
            "reportedDrawn": 0,
            "compLie": -1,
            "compUnifLie": false,
            "compDetect": 0.8759765625,
            "callBS": true,
            "playerTrialScore": -5,
            "oppTrialScore": 5,
            "playerTotalScore": 104,
            "oppTotalScore": 111,
            "waitTime": 2099.0426896708,
            "responseTime": 5018,
            "catchQuestion": "How many red marbles did your opponent report drawing?",
            "catchKey": -1,
            "catchResponse": -1,
            "catchResponseTime": -1,
            "pseudoRound": false,
            "trialTime": 11209
        },
        {
            "exptPart": "trial",
            "trialNumber": 33,
            "roleCurrent": "bullshitDetector",
            "marblesSampled": 10,
            "probabilityRed": 0.5,
            "drawnRed": 6,
            "reportedDrawn": 6,
            "compLie": 6,
            "compUnifLie": false,
            "compDetect": -1,
            "callBS": false,
            "playerTrialScore": 6,
            "oppTrialScore": 4,
            "playerTotalScore": 110,
            "oppTotalScore": 115,
            "waitTime": 5889.8274161736,
            "responseTime": 21547,
            "catchQuestion": "How many red marbles did your opponent report drawing?",
            "catchKey": -1,
            "catchResponse": -1,
            "catchResponseTime": -1,
            "pseudoRound": false,
            "trialTime": 29482
        },
        {
            "exptPart": "trial",
            "trialNumber": 34,
            "roleCurrent": "bullshitter",
            "marblesSampled": 10,
            "probabilityRed": 0.5,
            "drawnRed": 4,
            "reportedDrawn": 5,
            "compLie": -1,
            "compUnifLie": false,
            "compDetect": 0.25390625,
            "callBS": true,
            "playerTrialScore": -5,
            "oppTrialScore": 5,
            "playerTotalScore": 105,
            "oppTotalScore": 120,
            "waitTime": 2613.0658765045,
            "responseTime": 3983,
            "catchQuestion": "How many red marbles did you actually draw?",
            "catchKey": 4,
            "catchResponse": 4,
            "catchResponseTime": 4712,
            "pseudoRound": false,
            "trialTime": 16631
        },
        {
            "exptPart": "trial",
            "trialNumber": 35,
            "roleCurrent": "bullshitDetector",
            "marblesSampled": 10,
            "probabilityRed": 0.5,
            "drawnRed": 7,
            "reportedDrawn": 4,
            "compLie": 4,
            "compUnifLie": false,
            "compDetect": -1,
            "callBS": false,
            "playerTrialScore": 4,
            "oppTrialScore": 6,
            "playerTotalScore": 109,
            "oppTotalScore": 126,
            "waitTime": 6296.1282355975,
            "responseTime": 9714,
            "catchQuestion": "How many red marbles did you actually draw?",
            "catchKey": -1,
            "catchResponse": -1,
            "catchResponseTime": -1,
            "pseudoRound": false,
            "trialTime": 17795
        },
        {
            "exptPart": "trial",
            "trialNumber": 36,
            "roleCurrent": "bullshitter",
            "marblesSampled": 10,
            "probabilityRed": 0.5,
            "drawnRed": 5,
            "reportedDrawn": 5,
            "compLie": -1,
            "compUnifLie": false,
            "compDetect": 0.25390625,
            "callBS": false,
            "playerTrialScore": 5,
            "oppTrialScore": 5,
            "playerTotalScore": 114,
            "oppTotalScore": 131,
            "waitTime": 2356.4731681053,
            "responseTime": 4236,
            "catchQuestion": "How many red marbles did you actually draw?",
            "catchKey": -1,
            "catchResponse": -1,
            "catchResponseTime": -1,
            "pseudoRound": false,
            "trialTime": 11794
        },
        {
            "exptPart": "trial",
            "trialNumber": 37,
            "roleCurrent": "bullshitDetector",
            "marblesSampled": 10,
            "probabilityRed": 0.5,
            "drawnRed": 4,
            "reportedDrawn": 1,
            "compLie": -1,
            "compUnifLie": false,
            "compDetect": 0.25390625,
            "callBS": true,
            "playerTrialScore": 5,
            "oppTrialScore": -5,
            "playerTotalScore": 119,
            "oppTotalScore": 126,
            "waitTime": 5414.3991307938,
            "responseTime": 4018,
            "catchQuestion": "How many red marbles did you actually draw?",
            "catchKey": -1,
            "catchResponse": -1,
            "catchResponseTime": -1,
            "pseudoRound": true,
            "trialTime": 17466
        },
        {
            "exptPart": "trial",
            "trialNumber": 38,
            "roleCurrent": "bullshitter",
            "marblesSampled": 10,
            "probabilityRed": 0.5,
            "drawnRed": 4,
            "reportedDrawn": 6,
            "compLie": -1,
            "compUnifLie": false,
            "compDetect": 0.048828125,
            "callBS": false,
            "playerTrialScore": 4,
            "oppTrialScore": 6,
            "playerTotalScore": 123,
            "oppTotalScore": 132,
            "waitTime": 2200.9514485889,
            "responseTime": 26756,
            "catchQuestion": "How many red marbles did you actually draw?",
            "catchKey": -1,
            "catchResponse": -1,
            "catchResponseTime": -1,
            "pseudoRound": false,
            "trialTime": 33937
        },
        {
            "exptPart": "trial",
            "trialNumber": 39,
            "roleCurrent": "bullshitDetector",
            "marblesSampled": 10,
            "probabilityRed": 0.5,
            "drawnRed": 3,
            "reportedDrawn": 3,
            "compLie": 3,
            "compUnifLie": false,
            "compDetect": -1,
            "callBS": true,
            "playerTrialScore": -2,
            "oppTrialScore": 7,
            "playerTotalScore": 121,
            "oppTotalScore": 139,
            "waitTime": 6633.4765020308,
            "responseTime": 2905,
            "catchQuestion": "How many red marbles did you actually draw?",
            "catchKey": -1,
            "catchResponse": -1,
            "catchResponseTime": -1,
            "pseudoRound": false,
            "trialTime": 11363
        },
        {
            "exptPart": "trial",
            "trialNumber": 40,
            "roleCurrent": "bullshitter",
            "marblesSampled": 10,
            "probabilityRed": 0.5,
            "drawnRed": 1,
            "reportedDrawn": 1,
            "compLie": -1,
            "compUnifLie": false,
            "compDetect": 0.8662109375,
            "callBS": false,
            "playerTrialScore": 9,
            "oppTrialScore": 1,
            "playerTotalScore": 130,
            "oppTotalScore": 140,
            "waitTime": 2454.5330408934,
            "responseTime": 9471,
            "catchQuestion": "How many red marbles did you actually draw?",
            "catchKey": -1,
            "catchResponse": -1,
            "catchResponseTime": -1,
            "pseudoRound": true,
            "trialTime": 19009
        },
        {
            "exptPart": "trial",
            "trialNumber": 41,
            "roleCurrent": "bullshitDetector",
            "marblesSampled": 10,
            "probabilityRed": 0.5,
            "drawnRed": 3,
            "reportedDrawn": 2,
            "compLie": 2,
            "compUnifLie": false,
            "compDetect": -1,
            "callBS": true,
            "playerTrialScore": 5,
            "oppTrialScore": -5,
            "playerTotalScore": 135,
            "oppTotalScore": 135,
            "waitTime": 6574.5877890367,
            "responseTime": 20660,
            "catchQuestion": "How many red marbles did you actually draw?",
            "catchKey": -1,
            "catchResponse": -1,
            "catchResponseTime": -1,
            "pseudoRound": false,
            "trialTime": 28979
        },
        {
            "exptPart": "trial",
            "trialNumber": 42,
            "roleCurrent": "bullshitter",
            "marblesSampled": 10,
            "probabilityRed": 0.5,
            "drawnRed": 5,
            "reportedDrawn": 3,
            "compLie": -1,
            "compUnifLie": false,
            "compDetect": 0.705078125,
            "callBS": true,
            "playerTrialScore": -5,
            "oppTrialScore": 5,
            "playerTotalScore": 130,
            "oppTotalScore": 140,
            "waitTime": 2424.2404324317,
            "responseTime": 3983,
            "catchQuestion": "How many red marbles did you actually draw?",
            "catchKey": -1,
            "catchResponse": -1,
            "catchResponseTime": -1,
            "pseudoRound": false,
            "trialTime": 10821
        },
        {
            "exptPart": "trial",
            "trialNumber": 43,
            "roleCurrent": "bullshitDetector",
            "marblesSampled": 10,
            "probabilityRed": 0.5,
            "drawnRed": 4,
            "reportedDrawn": 7,
            "compLie": -1,
            "compUnifLie": false,
            "compDetect": 0.705078125,
            "callBS": true,
            "playerTrialScore": 5,
            "oppTrialScore": -5,
            "playerTotalScore": 135,
            "oppTotalScore": 135,
            "waitTime": 6392.4519094436,
            "responseTime": 4561,
            "catchQuestion": "How many red marbles did you actually draw?",
            "catchKey": -1,
            "catchResponse": -1,
            "catchResponseTime": -1,
            "pseudoRound": true,
            "trialTime": 13518
        },
        {
            "exptPart": "trial",
            "trialNumber": 44,
            "roleCurrent": "bullshitter",
            "marblesSampled": 10,
            "probabilityRed": 0.5,
            "drawnRed": 3,
            "reportedDrawn": 3,
            "compLie": -1,
            "compUnifLie": false,
            "compDetect": 0.705078125,
            "callBS": true,
            "playerTrialScore": 7,
            "oppTrialScore": -2,
            "playerTotalScore": 142,
            "oppTotalScore": 133,
            "waitTime": 2927.1032696318,
            "responseTime": 8568,
            "catchQuestion": "How many red marbles did you actually draw?",
            "catchKey": -1,
            "catchResponse": -1,
            "catchResponseTime": -1,
            "pseudoRound": false,
            "trialTime": 15347
        },
        {
            "exptPart": "trial",
            "trialNumber": 45,
            "roleCurrent": "bullshitDetector",
            "marblesSampled": 10,
            "probabilityRed": 0.5,
            "drawnRed": 2,
            "reportedDrawn": 3,
            "compLie": -1,
            "compUnifLie": false,
            "compDetect": 0.705078125,
            "callBS": true,
            "playerTrialScore": 5,
            "oppTrialScore": -5,
            "playerTotalScore": 147,
            "oppTotalScore": 128,
            "waitTime": 6367.2670629951,
            "responseTime": 1531,
            "catchQuestion": "How many red marbles did you actually draw?",
            "catchKey": -1,
            "catchResponse": -1,
            "catchResponseTime": -1,
            "pseudoRound": true,
            "trialTime": 9984
        },
        {
            "exptPart": "trial",
            "trialNumber": 46,
            "roleCurrent": "bullshitter",
            "marblesSampled": 10,
            "probabilityRed": 0.5,
            "drawnRed": 2,
            "reportedDrawn": 2,
            "compLie": -1,
            "compUnifLie": false,
            "compDetect": 0.822265625,
            "callBS": true,
            "playerTrialScore": 8,
            "oppTrialScore": -3,
            "playerTotalScore": 155,
            "oppTotalScore": 125,
            "waitTime": 2591.0980521691,
            "responseTime": 5354,
            "catchQuestion": "How many red marbles did you actually draw?",
            "catchKey": -1,
            "catchResponse": -1,
            "catchResponseTime": -1,
            "pseudoRound": true,
            "trialTime": 11534
        },
        {
            "exptPart": "trial",
            "trialNumber": 47,
            "roleCurrent": "bullshitDetector",
            "marblesSampled": 10,
            "probabilityRed": 0.5,
            "drawnRed": 6,
            "reportedDrawn": 6,
            "compLie": 7,
            "compUnifLie": false,
            "compDetect": -1,
            "callBS": false,
            "playerTrialScore": 6,
            "oppTrialScore": 4,
            "playerTotalScore": 161,
            "oppTotalScore": 129,
            "waitTime": 6582.2783934101,
            "responseTime": 4248,
            "catchQuestion": "How many red marbles did your opponent report drawing?",
            "catchKey": 6,
            "catchResponse": 6,
            "catchResponseTime": 2859,
            "pseudoRound": false,
            "trialTime": 15171
        },
        {
            "exptPart": "trial",
            "trialNumber": 48,
            "roleCurrent": "bullshitter",
            "marblesSampled": 10,
            "probabilityRed": 0.5,
            "drawnRed": 3,
            "reportedDrawn": 3,
            "compLie": -1,
            "compUnifLie": false,
            "compDetect": 0.705078125,
            "callBS": true,
            "playerTrialScore": 7,
            "oppTrialScore": -2,
            "playerTotalScore": 168,
            "oppTotalScore": 127,
            "waitTime": 2434.9623735269,
            "responseTime": 3300,
            "catchQuestion": "How many red marbles did your opponent report drawing?",
            "catchKey": -1,
            "catchResponse": -1,
            "catchResponseTime": -1,
            "pseudoRound": false,
            "trialTime": 12354
        },
        {
            "exptPart": "trial",
            "trialNumber": 49,
            "roleCurrent": "bullshitDetector",
            "marblesSampled": 10,
            "probabilityRed": 0.5,
            "drawnRed": 6,
            "reportedDrawn": 8,
            "compLie": -1,
            "compUnifLie": true,
            "compDetect": 0.705078125,
            "callBS": false,
            "playerTrialScore": 8,
            "oppTrialScore": 2,
            "playerTotalScore": 176,
            "oppTotalScore": 129,
            "waitTime": 7145.3680313158,
            "responseTime": 6892,
            "catchQuestion": "How many red marbles did your opponent report drawing?",
            "catchKey": -1,
            "catchResponse": -1,
            "catchResponseTime": -1,
            "pseudoRound": false,
            "trialTime": 16734
        },
        {
            "exptPart": "trial",
            "trialNumber": 50,
            "roleCurrent": "bullshitter",
            "marblesSampled": 10,
            "probabilityRed": 0.5,
            "drawnRed": 0,
            "reportedDrawn": 0,
            "compLie": -1,
            "compUnifLie": false,
            "compDetect": 0.8759765625,
            "callBS": true,
            "playerTrialScore": 10,
            "oppTrialScore": -5,
            "playerTotalScore": 186,
            "oppTotalScore": 124,
            "waitTime": 2898.8132578954,
            "responseTime": 8405,
            "catchQuestion": "How many red marbles did your opponent report drawing?",
            "catchKey": -1,
            "catchResponse": -1,
            "catchResponseTime": -1,
            "pseudoRound": true,
            "trialTime": 17396
        },
        {
            "exptPart": "trial",
            "trialNumber": 51,
            "roleCurrent": "bullshitDetector",
            "marblesSampled": 10,
            "probabilityRed": 0.5,
            "drawnRed": 6,
            "reportedDrawn": 5,
            "compLie": 5,
            "compUnifLie": false,
            "compDetect": -1,
            "callBS": true,
            "playerTrialScore": 5,
            "oppTrialScore": -5,
            "playerTotalScore": 191,
            "oppTotalScore": 119,
            "waitTime": 5643.0229824298,
            "responseTime": 13272,
            "catchQuestion": "How many red marbles did your opponent report drawing?",
            "catchKey": -1,
            "catchResponse": -1,
            "catchResponseTime": -1,
            "pseudoRound": false,
            "trialTime": 21184
        },
        {
            "exptPart": "trial",
            "trialNumber": 52,
            "roleCurrent": "bullshitter",
            "marblesSampled": 10,
            "probabilityRed": 0.5,
            "drawnRed": 5,
            "reportedDrawn": 5,
            "compLie": -1,
            "compUnifLie": false,
            "compDetect": 0.25390625,
            "callBS": true,
            "playerTrialScore": 5,
            "oppTrialScore": 0,
            "playerTotalScore": 196,
            "oppTotalScore": 119,
            "waitTime": 2104.3793573133,
            "responseTime": 4465,
            "catchQuestion": "How many red marbles did your opponent report drawing?",
            "catchKey": -1,
            "catchResponse": -1,
            "catchResponseTime": -1,
            "pseudoRound": false,
            "trialTime": 11717
        },
        {
            "exptPart": "trial",
            "trialNumber": 53,
            "roleCurrent": "bullshitDetector",
            "marblesSampled": 10,
            "probabilityRed": 0.5,
            "drawnRed": 2,
            "reportedDrawn": 2,
            "compLie": 6,
            "compUnifLie": false,
            "compDetect": -1,
            "callBS": true,
            "playerTrialScore": -3,
            "oppTrialScore": 8,
            "playerTotalScore": 193,
            "oppTotalScore": 127,
            "waitTime": 7408.1052846325,
            "responseTime": 39107,
            "catchQuestion": "How many red marbles did your opponent report drawing?",
            "catchKey": -1,
            "catchResponse": -1,
            "catchResponseTime": -1,
            "pseudoRound": false,
            "trialTime": 48203
        },
        {
            "exptPart": "trial",
            "trialNumber": 54,
            "roleCurrent": "bullshitter",
            "marblesSampled": 10,
            "probabilityRed": 0.5,
            "drawnRed": 5,
            "reportedDrawn": 6,
            "compLie": -1,
            "compUnifLie": false,
            "compDetect": 0.048828125,
            "callBS": false,
            "playerTrialScore": 4,
            "oppTrialScore": 6,
            "playerTotalScore": 197,
            "oppTotalScore": 133,
            "waitTime": 3172.7039308612,
            "responseTime": 5617,
            "catchQuestion": "How many red marbles did your opponent report drawing?",
            "catchKey": -1,
            "catchResponse": -1,
            "catchResponseTime": -1,
            "pseudoRound": false,
            "trialTime": 13031
        },
        {
            "exptPart": "trial",
            "trialNumber": 55,
            "roleCurrent": "bullshitDetector",
            "marblesSampled": 10,
            "probabilityRed": 0.5,
            "drawnRed": 7,
            "reportedDrawn": 7,
            "compLie": 7,
            "compUnifLie": false,
            "compDetect": -1,
            "callBS": false,
            "playerTrialScore": 7,
            "oppTrialScore": 3,
            "playerTotalScore": 204,
            "oppTotalScore": 136,
            "waitTime": 5863.2969822858,
            "responseTime": 59958,
            "catchQuestion": "How many red marbles did your opponent report drawing?",
            "catchKey": -1,
            "catchResponse": -1,
            "catchResponseTime": -1,
            "pseudoRound": false,
            "trialTime": 67558
        },
        {
            "exptPart": "trial",
            "trialNumber": 56,
            "roleCurrent": "bullshitter",
            "marblesSampled": 10,
            "probabilityRed": 0.5,
            "drawnRed": 6,
            "reportedDrawn": 6,
            "compLie": -1,
            "compUnifLie": false,
            "compDetect": 0.048828125,
            "callBS": true,
            "playerTrialScore": 4,
            "oppTrialScore": 1,
            "playerTotalScore": 208,
            "oppTotalScore": 137,
            "waitTime": 2821.3375071763,
            "responseTime": 5425,
            "catchQuestion": "How many red marbles did your opponent report drawing?",
            "catchKey": -1,
            "catchResponse": -1,
            "catchResponseTime": -1,
            "pseudoRound": false,
            "trialTime": 16372
        },
        {
            "exptPart": "trial",
            "trialNumber": 57,
            "roleCurrent": "bullshitDetector",
            "marblesSampled": 10,
            "probabilityRed": 0.5,
            "drawnRed": 3,
            "reportedDrawn": 3,
            "compLie": -1,
            "compUnifLie": true,
            "compDetect": 0.048828125,
            "callBS": true,
            "playerTrialScore": -2,
            "oppTrialScore": 7,
            "playerTotalScore": 206,
            "oppTotalScore": 144,
            "waitTime": 6092.8821673414,
            "responseTime": 4454,
            "catchQuestion": "How many red marbles did your opponent report drawing?",
            "catchKey": -1,
            "catchResponse": -1,
            "catchResponseTime": -1,
            "pseudoRound": false,
            "trialTime": 11794
        },
        {
            "exptPart": "trial",
            "trialNumber": 58,
            "roleCurrent": "bullshitter",
            "marblesSampled": 10,
            "probabilityRed": 0.5,
            "drawnRed": 6,
            "reportedDrawn": 7,
            "compLie": -1,
            "compUnifLie": false,
            "compDetect": -0.068359375,
            "callBS": false,
            "playerTrialScore": 3,
            "oppTrialScore": 7,
            "playerTotalScore": 209,
            "oppTotalScore": 151,
            "waitTime": 2911.3434846179,
            "responseTime": 41759,
            "catchQuestion": "How many red marbles did your opponent report drawing?",
            "catchKey": -1,
            "catchResponse": -1,
            "catchResponseTime": -1,
            "pseudoRound": false,
            "trialTime": 85115
        },
        {
            "exptPart": "trial",
            "trialNumber": 59,
            "roleCurrent": "bullshitDetector",
            "marblesSampled": 10,
            "probabilityRed": 0.5,
            "drawnRed": 6,
            "reportedDrawn": 6,
            "compLie": 8,
            "compUnifLie": false,
            "compDetect": -1,
            "callBS": true,
            "playerTrialScore": 1,
            "oppTrialScore": 4,
            "playerTotalScore": 210,
            "oppTotalScore": 155,
            "waitTime": 6657.3553950157,
            "responseTime": 1934,
            "catchQuestion": "How many red marbles did your opponent report drawing?",
            "catchKey": -1,
            "catchResponse": -1,
            "catchResponseTime": -1,
            "pseudoRound": false,
            "trialTime": 10509
        },
        {
            "exptPart": "trial",
            "trialNumber": 60,
            "roleCurrent": "bullshitter",
            "marblesSampled": 10,
            "probabilityRed": 0.5,
            "drawnRed": 7,
            "reportedDrawn": 8,
            "compLie": -1,
            "compUnifLie": false,
            "compDetect": -0.1123046875,
            "callBS": false,
            "playerTrialScore": 2,
            "oppTrialScore": 8,
            "playerTotalScore": 212,
            "oppTotalScore": 163,
            "waitTime": 3029.680611377,
            "responseTime": 5710,
            "catchQuestion": "How many red marbles did you actually draw?",
            "catchKey": 7,
            "catchResponse": 7,
            "catchResponseTime": 4917,
            "pseudoRound": true,
            "trialTime": 46198
        },
        {
            "exptPart": "trial",
            "trialNumber": 61,
            "roleCurrent": "bullshitDetector",
            "marblesSampled": 10,
            "probabilityRed": 0.5,
            "drawnRed": 6,
            "reportedDrawn": 2,
            "compLie": -1,
            "compUnifLie": true,
            "compDetect": -0.1123046875,
            "callBS": true,
            "playerTrialScore": 5,
            "oppTrialScore": -5,
            "playerTotalScore": 217,
            "oppTotalScore": 158,
            "waitTime": 5591.6561477803,
            "responseTime": 2829,
            "catchQuestion": "How many red marbles did you actually draw?",
            "catchKey": -1,
            "catchResponse": -1,
            "catchResponseTime": -1,
            "pseudoRound": false,
            "trialTime": 10009
        },
        {
            "exptPart": "trial",
            "trialNumber": 62,
            "roleCurrent": "bullshitter",
            "marblesSampled": 10,
            "probabilityRed": 0.5,
            "drawnRed": 5,
            "reportedDrawn": 6,
            "compLie": -1,
            "compUnifLie": false,
            "compDetect": 0.048828125,
            "callBS": false,
            "playerTrialScore": 4,
            "oppTrialScore": 6,
            "playerTotalScore": 221,
            "oppTotalScore": 164,
            "waitTime": 2706.4409729072,
            "responseTime": 3347,
            "catchQuestion": "How many red marbles did you actually draw?",
            "catchKey": -1,
            "catchResponse": -1,
            "catchResponseTime": -1,
            "pseudoRound": false,
            "trialTime": 12837
        },
        {
            "exptPart": "trial",
            "trialNumber": 63,
            "roleCurrent": "bullshitDetector",
            "marblesSampled": 10,
            "probabilityRed": 0.5,
            "drawnRed": 7,
            "reportedDrawn": 5,
            "compLie": -1,
            "compUnifLie": true,
            "compDetect": 0.048828125,
            "callBS": false,
            "playerTrialScore": 5,
            "oppTrialScore": 5,
            "playerTotalScore": 226,
            "oppTotalScore": 169,
            "waitTime": 6271.624374197,
            "responseTime": 30201,
            "catchQuestion": "How many red marbles did you actually draw?",
            "catchKey": -1,
            "catchResponse": -1,
            "catchResponseTime": -1,
            "pseudoRound": false,
            "trialTime": 38432
        },
        {
            "exptPart": "trial",
            "trialNumber": 64,
            "roleCurrent": "bullshitter",
            "marblesSampled": 10,
            "probabilityRed": 0.5,
            "drawnRed": 4,
            "reportedDrawn": 6,
            "compLie": -1,
            "compUnifLie": false,
            "compDetect": 0.048828125,
            "callBS": false,
            "playerTrialScore": 4,
            "oppTrialScore": 6,
            "playerTotalScore": 230,
            "oppTotalScore": 175,
            "waitTime": 2144.6467560401,
            "responseTime": 4252,
            "catchQuestion": "How many red marbles did you actually draw?",
            "catchKey": -1,
            "catchResponse": -1,
            "catchResponseTime": -1,
            "pseudoRound": false,
            "trialTime": 13982
        },
        {
            "exptPart": "trial",
            "trialNumber": 65,
            "roleCurrent": "bullshitDetector",
            "marblesSampled": 10,
            "probabilityRed": 0.5,
            "drawnRed": 6,
            "reportedDrawn": 6,
            "compLie": 6,
            "compUnifLie": false,
            "compDetect": -1,
            "callBS": true,
            "playerTrialScore": 1,
            "oppTrialScore": 4,
            "playerTotalScore": 231,
            "oppTotalScore": 179,
            "waitTime": 5455.4671867813,
            "responseTime": 2050,
            "catchQuestion": "How many red marbles did you actually draw?",
            "catchKey": -1,
            "catchResponse": -1,
            "catchResponseTime": -1,
            "pseudoRound": false,
            "trialTime": 8775
        },
        {
            "exptPart": "trial",
            "trialNumber": 66,
            "roleCurrent": "bullshitter",
            "marblesSampled": 10,
            "probabilityRed": 0.5,
            "drawnRed": 4,
            "reportedDrawn": 6,
            "compLie": -1,
            "compUnifLie": false,
            "compDetect": 0.048828125,
            "callBS": false,
            "playerTrialScore": 4,
            "oppTrialScore": 6,
            "playerTotalScore": 235,
            "oppTotalScore": 185,
            "waitTime": 2090.4562569704,
            "responseTime": 2914,
            "catchQuestion": "How many red marbles did you actually draw?",
            "catchKey": -1,
            "catchResponse": -1,
            "catchResponseTime": -1,
            "pseudoRound": false,
            "trialTime": 8551
        },
        {
            "exptPart": "trial",
            "trialNumber": 67,
            "roleCurrent": "bullshitDetector",
            "marblesSampled": 10,
            "probabilityRed": 0.5,
            "drawnRed": 5,
            "reportedDrawn": 5,
            "compLie": 5,
            "compUnifLie": false,
            "compDetect": -1,
            "callBS": true,
            "playerTrialScore": 0,
            "oppTrialScore": 5,
            "playerTotalScore": 235,
            "oppTotalScore": 190,
            "waitTime": 6609.2584889117,
            "responseTime": 2301,
            "catchQuestion": "How many red marbles did you actually draw?",
            "catchKey": -1,
            "catchResponse": -1,
            "catchResponseTime": -1,
            "pseudoRound": false,
            "trialTime": 9956
        },
        {
            "exptPart": "trial",
            "trialNumber": 68,
            "roleCurrent": "bullshitter",
            "marblesSampled": 10,
            "probabilityRed": 0.5,
            "drawnRed": 5,
            "reportedDrawn": 5,
            "compLie": -1,
            "compUnifLie": false,
            "compDetect": 0.25390625,
            "callBS": false,
            "playerTrialScore": 5,
            "oppTrialScore": 5,
            "playerTotalScore": 240,
            "oppTotalScore": 195,
            "waitTime": 2256.5681901817,
            "responseTime": 4947,
            "catchQuestion": "How many red marbles did you actually draw?",
            "catchKey": -1,
            "catchResponse": -1,
            "catchResponseTime": -1,
            "pseudoRound": false,
            "trialTime": 11275
        },
        {
            "exptPart": "trial",
            "trialNumber": 69,
            "roleCurrent": "bullshitDetector",
            "marblesSampled": 10,
            "probabilityRed": 0.5,
            "drawnRed": 6,
            "reportedDrawn": 6,
            "compLie": 8,
            "compUnifLie": false,
            "compDetect": -1,
            "callBS": true,
            "playerTrialScore": 1,
            "oppTrialScore": 4,
            "playerTotalScore": 241,
            "oppTotalScore": 199,
            "waitTime": 5155.692237183,
            "responseTime": 14200,
            "catchQuestion": "How many red marbles did you actually draw?",
            "catchKey": -1,
            "catchResponse": -1,
            "catchResponseTime": -1,
            "pseudoRound": false,
            "trialTime": 21386
        },
        {
            "exptPart": "trial",
            "trialNumber": 70,
            "roleCurrent": "bullshitter",
            "marblesSampled": 10,
            "probabilityRed": 0.5,
            "drawnRed": 6,
            "reportedDrawn": 7,
            "compLie": -1,
            "compUnifLie": false,
            "compDetect": -0.068359375,
            "callBS": false,
            "playerTrialScore": 3,
            "oppTrialScore": 7,
            "playerTotalScore": 244,
            "oppTotalScore": 206,
            "waitTime": 2332.1883813376,
            "responseTime": 3721,
            "catchQuestion": "How many red marbles did you actually draw?",
            "catchKey": 6,
            "catchResponse": 7,
            "catchResponseTime": 3547,
            "pseudoRound": false,
            "trialTime": 19763
        },
        {
            "exptPart": "trial",
            "trialNumber": 71,
            "roleCurrent": "bullshitDetector",
            "marblesSampled": 10,
            "probabilityRed": 0.5,
            "drawnRed": 5,
            "reportedDrawn": 5,
            "compLie": 7,
            "compUnifLie": false,
            "compDetect": -1,
            "callBS": true,
            "playerTrialScore": 0,
            "oppTrialScore": 5,
            "playerTotalScore": 244,
            "oppTotalScore": 211,
            "waitTime": 6855.7292567654,
            "responseTime": 1578,
            "catchQuestion": "How many red marbles did you actually draw?",
            "catchKey": -1,
            "catchResponse": -1,
            "catchResponseTime": -1,
            "pseudoRound": false,
            "trialTime": 9765
        },
        {
            "exptPart": "trial",
            "trialNumber": 72,
            "roleCurrent": "bullshitter",
            "marblesSampled": 10,
            "probabilityRed": 0.5,
            "drawnRed": 5,
            "reportedDrawn": 5,
            "compLie": -1,
            "compUnifLie": false,
            "compDetect": 0.25390625,
            "callBS": false,
            "playerTrialScore": 5,
            "oppTrialScore": 5,
            "playerTotalScore": 249,
            "oppTotalScore": 216,
            "waitTime": 2787.7621546706,
            "responseTime": 3096,
            "catchQuestion": "How many red marbles did you actually draw?",
            "catchKey": 5,
            "catchResponse": 5,
            "catchResponseTime": 2463,
            "pseudoRound": false,
            "trialTime": 12345
        },
        {
            "exptPart": "trial",
            "trialNumber": 73,
            "roleCurrent": "bullshitDetector",
            "marblesSampled": 10,
            "probabilityRed": 0.5,
            "drawnRed": 4,
            "reportedDrawn": 2,
            "compLie": -1,
            "compUnifLie": false,
            "compDetect": 0.25390625,
            "callBS": true,
            "playerTrialScore": 5,
            "oppTrialScore": -5,
            "playerTotalScore": 254,
            "oppTotalScore": 211,
            "waitTime": 5191.0644511627,
            "responseTime": 3274,
            "catchQuestion": "How many red marbles did you actually draw?",
            "catchKey": -1,
            "catchResponse": -1,
            "catchResponseTime": -1,
            "pseudoRound": true,
            "trialTime": 10094
        },
        {
            "exptPart": "trial",
            "trialNumber": 74,
            "roleCurrent": "bullshitter",
            "marblesSampled": 10,
            "probabilityRed": 0.5,
            "drawnRed": 5,
            "reportedDrawn": 5,
            "compLie": -1,
            "compUnifLie": false,
            "compDetect": 0.25390625,
            "callBS": false,
            "playerTrialScore": 5,
            "oppTrialScore": 5,
            "playerTotalScore": 259,
            "oppTotalScore": 216,
            "waitTime": 2135.3014762437,
            "responseTime": 3747,
            "catchQuestion": "How many red marbles did you actually draw?",
            "catchKey": -1,
            "catchResponse": -1,
            "catchResponseTime": -1,
            "pseudoRound": true,
            "trialTime": 9678
        },
        {
            "exptPart": "trial",
            "trialNumber": 75,
            "roleCurrent": "bullshitDetector",
            "marblesSampled": 10,
            "probabilityRed": 0.5,
            "drawnRed": 7,
            "reportedDrawn": 3,
            "compLie": 3,
            "compUnifLie": false,
            "compDetect": -1,
            "callBS": true,
            "playerTrialScore": 5,
            "oppTrialScore": -5,
            "playerTotalScore": 264,
            "oppTotalScore": 211,
            "waitTime": 5151.3575653884,
            "responseTime": 40134,
            "catchQuestion": "How many red marbles did you actually draw?",
            "catchKey": -1,
            "catchResponse": -1,
            "catchResponseTime": -1,
            "pseudoRound": false,
            "trialTime": 48058
        },
        {
            "exptPart": "trial",
            "trialNumber": 76,
            "roleCurrent": "bullshitter",
            "marblesSampled": 10,
            "probabilityRed": 0.5,
            "drawnRed": 8,
            "reportedDrawn": 7,
            "compLie": -1,
            "compUnifLie": false,
            "compDetect": -0.068359375,
            "callBS": false,
            "playerTrialScore": 3,
            "oppTrialScore": 7,
            "playerTotalScore": 267,
            "oppTotalScore": 218,
            "waitTime": 2537.5704976364,
            "responseTime": 5091,
            "catchQuestion": "How many red marbles did you actually draw?",
            "catchKey": -1,
            "catchResponse": -1,
            "catchResponseTime": -1,
            "pseudoRound": false,
            "trialTime": 11347
        },
        {
            "exptPart": "trial",
            "trialNumber": 77,
            "roleCurrent": "bullshitDetector",
            "marblesSampled": 10,
            "probabilityRed": 0.5,
            "drawnRed": 4,
            "reportedDrawn": 4,
            "compLie": 5,
            "compUnifLie": false,
            "compDetect": -1,
            "callBS": true,
            "playerTrialScore": -1,
            "oppTrialScore": 6,
            "playerTotalScore": 266,
            "oppTotalScore": 224,
            "waitTime": 6192.7952667701,
            "responseTime": 2136,
            "catchQuestion": "How many red marbles did you actually draw?",
            "catchKey": -1,
            "catchResponse": -1,
            "catchResponseTime": -1,
            "pseudoRound": false,
            "trialTime": 9551
        },
        {
            "exptPart": "trial",
            "trialNumber": 78,
            "roleCurrent": "bullshitter",
            "marblesSampled": 10,
            "probabilityRed": 0.5,
            "drawnRed": 4,
            "reportedDrawn": 5,
            "compLie": -1,
            "compUnifLie": false,
            "compDetect": 0.25390625,
            "callBS": false,
            "playerTrialScore": 5,
            "oppTrialScore": 5,
            "playerTotalScore": 271,
            "oppTotalScore": 229,
            "waitTime": 2772.7468532786,
            "responseTime": 59767,
            "catchQuestion": "How many red marbles did you actually draw?",
            "catchKey": -1,
            "catchResponse": -1,
            "catchResponseTime": -1,
            "pseudoRound": false,
            "trialTime": 66911
        },
        {
            "exptPart": "trial",
            "trialNumber": 79,
            "roleCurrent": "bullshitDetector",
            "marblesSampled": 10,
            "probabilityRed": 0.5,
            "drawnRed": 4,
            "reportedDrawn": 8,
            "compLie": -1,
            "compUnifLie": false,
            "compDetect": 0.25390625,
            "callBS": false,
            "playerTrialScore": 8,
            "oppTrialScore": 2,
            "playerTotalScore": 279,
            "oppTotalScore": 231,
            "waitTime": 5336.7298971599,
            "responseTime": 41430,
            "catchQuestion": "How many red marbles did you actually draw?",
            "catchKey": -1,
            "catchResponse": -1,
            "catchResponseTime": -1,
            "pseudoRound": true,
            "trialTime": 49056
        },
        {
            "exptPart": "trial",
            "trialNumber": 80,
            "roleCurrent": "bullshitter",
            "marblesSampled": 10,
            "probabilityRed": 0.5,
            "drawnRed": 7,
            "reportedDrawn": 8,
            "compLie": -1,
            "compUnifLie": false,
            "compDetect": -0.1123046875,
            "callBS": false,
            "playerTrialScore": 2,
            "oppTrialScore": 8,
            "playerTotalScore": 281,
            "oppTotalScore": 239,
            "waitTime": 2080.8037895745,
            "responseTime": 4648,
            "catchQuestion": "How many red marbles did you actually draw?",
            "catchKey": -1,
            "catchResponse": -1,
            "catchResponseTime": -1,
            "pseudoRound": false,
            "trialTime": 10675
        },
        {
            "exptPart": "trial",
            "trialNumber": 81,
            "roleCurrent": "bullshitDetector",
            "marblesSampled": 10,
            "probabilityRed": 0.5,
            "drawnRed": 6,
            "reportedDrawn": 3,
            "compLie": 3,
            "compUnifLie": false,
            "compDetect": -1,
            "callBS": true,
            "playerTrialScore": 5,
            "oppTrialScore": -5,
            "playerTotalScore": 286,
            "oppTotalScore": 234,
            "waitTime": 6847.3803625878,
            "responseTime": 5069,
            "catchQuestion": "How many red marbles did you actually draw?",
            "catchKey": -1,
            "catchResponse": -1,
            "catchResponseTime": -1,
            "pseudoRound": false,
            "trialTime": 14449
        },
        {
            "exptPart": "trial",
            "trialNumber": 82,
            "roleCurrent": "bullshitter",
            "marblesSampled": 10,
            "probabilityRed": 0.5,
            "drawnRed": 8,
            "reportedDrawn": 7,
            "compLie": -1,
            "compUnifLie": false,
            "compDetect": -0.068359375,
            "callBS": false,
            "playerTrialScore": 3,
            "oppTrialScore": 7,
            "playerTotalScore": 289,
            "oppTotalScore": 241,
            "waitTime": 2103.432464031,
            "responseTime": 4768,
            "catchQuestion": "How many red marbles did you actually draw?",
            "catchKey": -1,
            "catchResponse": -1,
            "catchResponseTime": -1,
            "pseudoRound": true,
            "trialTime": 10207
        },
        {
            "exptPart": "trial",
            "trialNumber": 83,
            "roleCurrent": "bullshitDetector",
            "marblesSampled": 10,
            "probabilityRed": 0.5,
            "drawnRed": 4,
            "reportedDrawn": 6,
            "compLie": -1,
            "compUnifLie": true,
            "compDetect": -0.068359375,
            "callBS": false,
            "playerTrialScore": 6,
            "oppTrialScore": 4,
            "playerTotalScore": 295,
            "oppTotalScore": 245,
            "waitTime": 6269.32156159,
            "responseTime": 2227,
            "catchQuestion": "How many red marbles did you actually draw?",
            "catchKey": -1,
            "catchResponse": -1,
            "catchResponseTime": -1,
            "pseudoRound": false,
            "trialTime": 9552
        },
        {
            "exptPart": "trial",
            "trialNumber": 84,
            "roleCurrent": "bullshitter",
            "marblesSampled": 10,
            "probabilityRed": 0.5,
            "drawnRed": 6,
            "reportedDrawn": 7,
            "compLie": -1,
            "compUnifLie": false,
            "compDetect": -0.068359375,
            "callBS": false,
            "playerTrialScore": 3,
            "oppTrialScore": 7,
            "playerTotalScore": 298,
            "oppTotalScore": 252,
            "waitTime": 2720.8272761933,
            "responseTime": 7574,
            "catchQuestion": "How many red marbles did you actually draw?",
            "catchKey": 6,
            "catchResponse": 8,
            "catchResponseTime": 4197,
            "pseudoRound": false,
            "trialTime": 22771
        },
        {
            "exptPart": "trial",
            "trialNumber": 85,
            "roleCurrent": "bullshitDetector",
            "marblesSampled": 10,
            "probabilityRed": 0.5,
            "drawnRed": 6,
            "reportedDrawn": 2,
            "compLie": 2,
            "compUnifLie": false,
            "compDetect": -1,
            "callBS": true,
            "playerTrialScore": 5,
            "oppTrialScore": -5,
            "playerTotalScore": 303,
            "oppTotalScore": 247,
            "waitTime": 5789.4651248204,
            "responseTime": 13222,
            "catchQuestion": "How many red marbles did you actually draw?",
            "catchKey": -1,
            "catchResponse": -1,
            "catchResponseTime": -1,
            "pseudoRound": false,
            "trialTime": 20589
        },
        {
            "exptPart": "trial",
            "trialNumber": 86,
            "roleCurrent": "bullshitter",
            "marblesSampled": 10,
            "probabilityRed": 0.5,
            "drawnRed": 3,
            "reportedDrawn": 5,
            "compLie": -1,
            "compUnifLie": false,
            "compDetect": 0.25390625,
            "callBS": false,
            "playerTrialScore": 5,
            "oppTrialScore": 5,
            "playerTotalScore": 308,
            "oppTotalScore": 252,
            "waitTime": 2133.1033173124,
            "responseTime": 7698,
            "catchQuestion": "How many red marbles did you actually draw?",
            "catchKey": -1,
            "catchResponse": -1,
            "catchResponseTime": -1,
            "pseudoRound": false,
            "trialTime": 13982
        },
        {
            "exptPart": "trial",
            "trialNumber": 87,
            "roleCurrent": "bullshitDetector",
            "marblesSampled": 10,
            "probabilityRed": 0.5,
            "drawnRed": 5,
            "reportedDrawn": 5,
            "compLie": 6,
            "compUnifLie": false,
            "compDetect": -1,
            "callBS": false,
            "playerTrialScore": 5,
            "oppTrialScore": 5,
            "playerTotalScore": 313,
            "oppTotalScore": 257,
            "waitTime": 5684.711223436,
            "responseTime": 3792,
            "catchQuestion": "How many red marbles did you actually draw?",
            "catchKey": -1,
            "catchResponse": -1,
            "catchResponseTime": -1,
            "pseudoRound": false,
            "trialTime": 11530
        },
        {
            "exptPart": "trial",
            "trialNumber": 88,
            "roleCurrent": "bullshitter",
            "marblesSampled": 10,
            "probabilityRed": 0.5,
            "drawnRed": 4,
            "reportedDrawn": 5,
            "compLie": -1,
            "compUnifLie": false,
            "compDetect": 0.25390625,
            "callBS": false,
            "playerTrialScore": 5,
            "oppTrialScore": 5,
            "playerTotalScore": 318,
            "oppTotalScore": 262,
            "waitTime": 2348.4892866555,
            "responseTime": 4593,
            "catchQuestion": "How many red marbles did you actually draw?",
            "catchKey": -1,
            "catchResponse": -1,
            "catchResponseTime": -1,
            "pseudoRound": true,
            "trialTime": 10479
        },
        {
            "exptPart": "trial",
            "trialNumber": 89,
            "roleCurrent": "bullshitDetector",
            "marblesSampled": 10,
            "probabilityRed": 0.5,
            "drawnRed": 4,
            "reportedDrawn": 4,
            "compLie": 6,
            "compUnifLie": false,
            "compDetect": -1,
            "callBS": true,
            "playerTrialScore": -1,
            "oppTrialScore": 6,
            "playerTotalScore": 317,
            "oppTotalScore": 268,
            "waitTime": 5152.6608618426,
            "responseTime": 6275,
            "catchQuestion": "How many red marbles did you actually draw?",
            "catchKey": -1,
            "catchResponse": -1,
            "catchResponseTime": -1,
            "pseudoRound": false,
            "trialTime": 12916
        },
        {
            "exptPart": "trial",
            "trialNumber": 90,
            "roleCurrent": "bullshitter",
            "marblesSampled": 10,
            "probabilityRed": 0.5,
            "drawnRed": 9,
            "reportedDrawn": 8,
            "compLie": -1,
            "compUnifLie": false,
            "compDetect": -0.1123046875,
            "callBS": false,
            "playerTrialScore": 2,
            "oppTrialScore": 8,
            "playerTotalScore": 319,
            "oppTotalScore": 276,
            "waitTime": 2931.9203890871,
            "responseTime": 6628,
            "catchQuestion": "How many red marbles did you actually draw?",
            "catchKey": -1,
            "catchResponse": -1,
            "catchResponseTime": -1,
            "pseudoRound": true,
            "trialTime": 14429
        },
        {
            "exptPart": "trial",
            "trialNumber": 91,
            "roleCurrent": "bullshitDetector",
            "marblesSampled": 10,
            "probabilityRed": 0.5,
            "drawnRed": 6,
            "reportedDrawn": 9,
            "compLie": -1,
            "compUnifLie": false,
            "compDetect": -0.1123046875,
            "callBS": false,
            "playerTrialScore": 9,
            "oppTrialScore": 1,
            "playerTotalScore": 328,
            "oppTotalScore": 277,
            "waitTime": 6957.4576036768,
            "responseTime": 2680,
            "catchQuestion": "How many red marbles did you actually draw?",
            "catchKey": -1,
            "catchResponse": -1,
            "catchResponseTime": -1,
            "pseudoRound": true,
            "trialTime": 11112
        },
        {
            "exptPart": "trial",
            "trialNumber": 92,
            "roleCurrent": "bullshitter",
            "marblesSampled": 10,
            "probabilityRed": 0.5,
            "drawnRed": 5,
            "reportedDrawn": 8,
            "compLie": -1,
            "compUnifLie": false,
            "compDetect": -0.1123046875,
            "callBS": false,
            "playerTrialScore": 2,
            "oppTrialScore": 8,
            "playerTotalScore": 330,
            "oppTotalScore": 285,
            "waitTime": 2199.0285344702,
            "responseTime": 3674,
            "catchQuestion": "How many red marbles did you actually draw?",
            "catchKey": -1,
            "catchResponse": -1,
            "catchResponseTime": -1,
            "pseudoRound": false,
            "trialTime": 10527
        },
        {
            "exptPart": "trial",
            "trialNumber": 93,
            "roleCurrent": "bullshitDetector",
            "marblesSampled": 10,
            "probabilityRed": 0.5,
            "drawnRed": 5,
            "reportedDrawn": 5,
            "compLie": 5,
            "compUnifLie": false,
            "compDetect": -1,
            "callBS": false,
            "playerTrialScore": 5,
            "oppTrialScore": 5,
            "playerTotalScore": 335,
            "oppTotalScore": 290,
            "waitTime": 5314.0790095429,
            "responseTime": 2158,
            "catchQuestion": "How many red marbles did you actually draw?",
            "catchKey": -1,
            "catchResponse": -1,
            "catchResponseTime": -1,
            "pseudoRound": false,
            "trialTime": 9881
        },
        {
            "exptPart": "trial",
            "trialNumber": 94,
            "roleCurrent": "bullshitter",
            "marblesSampled": 10,
            "probabilityRed": 0.5,
            "drawnRed": 7,
            "reportedDrawn": 8,
            "compLie": -1,
            "compUnifLie": false,
            "compDetect": -0.1123046875,
            "callBS": false,
            "playerTrialScore": 2,
            "oppTrialScore": 8,
            "playerTotalScore": 337,
            "oppTotalScore": 298,
            "waitTime": 2106.1561176606,
            "responseTime": 4308,
            "catchQuestion": "How many red marbles did you actually draw?",
            "catchKey": -1,
            "catchResponse": -1,
            "catchResponseTime": -1,
            "pseudoRound": false,
            "trialTime": 10605
        },
        {
            "exptPart": "trial",
            "trialNumber": 95,
            "roleCurrent": "bullshitDetector",
            "marblesSampled": 10,
            "probabilityRed": 0.5,
            "drawnRed": 3,
            "reportedDrawn": 0,
            "compLie": -1,
            "compUnifLie": true,
            "compDetect": -0.1123046875,
            "callBS": true,
            "playerTrialScore": 5,
            "oppTrialScore": -5,
            "playerTotalScore": 342,
            "oppTotalScore": 293,
            "waitTime": 5920.7050829231,
            "responseTime": 2651,
            "catchQuestion": "How many red marbles did you actually draw?",
            "catchKey": -1,
            "catchResponse": -1,
            "catchResponseTime": -1,
            "pseudoRound": false,
            "trialTime": 11953
        },
        {
            "exptPart": "trial",
            "trialNumber": 96,
            "roleCurrent": "bullshitter",
            "marblesSampled": 10,
            "probabilityRed": 0.5,
            "drawnRed": 3,
            "reportedDrawn": 4,
            "compLie": -1,
            "compUnifLie": false,
            "compDetect": 0.5,
            "callBS": false,
            "playerTrialScore": 6,
            "oppTrialScore": 4,
            "playerTotalScore": 348,
            "oppTotalScore": 297,
            "waitTime": 2217.8745895344,
            "responseTime": 3848,
            "catchQuestion": "How many red marbles did you actually draw?",
            "catchKey": 3,
            "catchResponse": 3,
            "catchResponseTime": 3079,
            "pseudoRound": false,
            "trialTime": 12439
        },
        {
            "exptPart": "trial",
            "trialNumber": 97,
            "roleCurrent": "bullshitDetector",
            "marblesSampled": 10,
            "probabilityRed": 0.5,
            "drawnRed": 5,
            "reportedDrawn": 10,
            "compLie": -1,
            "compUnifLie": true,
            "compDetect": 0.5,
            "callBS": true,
            "playerTrialScore": 5,
            "oppTrialScore": -5,
            "playerTotalScore": 353,
            "oppTotalScore": 292,
            "waitTime": 5600.9200495027,
            "responseTime": 15808,
            "catchQuestion": "How many red marbles did you actually draw?",
            "catchKey": -1,
            "catchResponse": -1,
            "catchResponseTime": -1,
            "pseudoRound": false,
            "trialTime": 23074
        },
        {
            "exptPart": "trial",
            "trialNumber": 98,
            "roleCurrent": "bullshitter",
            "marblesSampled": 10,
            "probabilityRed": 0.5,
            "drawnRed": 3,
            "reportedDrawn": 0,
            "compLie": -1,
            "compUnifLie": false,
            "compDetect": 0.8759765625,
            "callBS": true,
            "playerTrialScore": -5,
            "oppTrialScore": 5,
            "playerTotalScore": 348,
            "oppTotalScore": 297,
            "waitTime": 2716.0265636975,
            "responseTime": 3652,
            "catchQuestion": "How many red marbles did you actually draw?",
            "catchKey": -1,
            "catchResponse": -1,
            "catchResponseTime": -1,
            "pseudoRound": true,
            "trialTime": 12030
        },
        {
            "exptPart": "trial",
            "trialNumber": 99,
            "roleCurrent": "bullshitDetector",
            "marblesSampled": 10,
            "probabilityRed": 0.5,
            "drawnRed": 4,
            "reportedDrawn": 4,
            "compLie": 4,
            "compUnifLie": false,
            "compDetect": -1,
            "callBS": true,
            "playerTrialScore": -1,
            "oppTrialScore": 6,
            "playerTotalScore": 347,
            "oppTotalScore": 303,
            "waitTime": 5238.1643980016,
            "responseTime": 22611,
            "catchQuestion": "How many red marbles did you actually draw?",
            "catchKey": -1,
            "catchResponse": -1,
            "catchResponseTime": -1,
            "pseudoRound": false,
            "trialTime": 29893
        },
        {
            "exptPart": "trial",
            "trialNumber": 100,
            "roleCurrent": "bullshitter",
            "marblesSampled": 10,
            "probabilityRed": 0.5,
            "drawnRed": 7,
            "reportedDrawn": 8,
            "compLie": -1,
            "compUnifLie": false,
            "compDetect": -0.1123046875,
            "callBS": false,
            "playerTrialScore": 2,
            "oppTrialScore": 8,
            "playerTotalScore": 349,
            "oppTotalScore": 311,
            "waitTime": 2490.1208006856,
            "responseTime": 4307,
            "catchQuestion": "How many red marbles did you actually draw?",
            "catchKey": -1,
            "catchResponse": -1,
            "catchResponseTime": -1,
            "pseudoRound": false,
            "trialTime": 266355
        }
    ]
}